Timestamp,GSR,HR,GyroX,GyroY,GyroZ
2025-09-13 17:07:36.926895,2644,57,5052,8,15644
2025-09-13 17:07:37.142174,2639,57,4988,84,15780
2025-09-13 17:07:37.372047,2642,57,5108,84,15548
2025-09-13 17:07:37.545233,2642,57,4988,76,15696
2025-09-13 17:07:37.761433,2640,57,5060,144,15752
2025-09-13 17:07:37.941593,2647,57,4840,16,15780
2025-09-13 17:07:38.194885,2641,57,5136,112,15712
2025-09-13 17:07:38.397553,2648,57,5252,56,15700
2025-09-13 17:07:38.625826,2641,57,4916,112,15840
2025-09-13 17:07:38.814146,2627,57,4980,120,15736
2025-09-13 17:07:38.966395,2640,57,5172,64,15636
2025-09-13 17:07:39.167296,2641,57,5220,140,15640
2025-09-13 17:07:39.386365,2655,57,4984,112,15700
2025-09-13 17:07:39.578349,2647,57,5028,140,15692
2025-09-13 17:07:39.811868,2646,57,5036,100,15832
2025-09-13 17:07:40.047043,2655,57,5276,60,15620
2025-09-13 17:07:40.243980,2653,57,5100,65524,15740
2025-09-13 17:07:40.472898,2636,57,5180,76,15692
2025-09-13 17:07:40.700927,2638,57,5016,112,15768
2025-09-13 17:07:40.936906,2642,57,4956,104,15524
2025-09-13 17:07:41.198765,2643,57,5160,65516,15648
2025-09-13 17:07:41.464982,2636,57,5200,65504,15652
2025-09-13 17:07:41.681197,2638,57,5136,168,15548
2025-09-13 17:07:41.944199,2642,57,5088,64,15672
2025-09-13 17:07:42.132026,2647,57,5032,104,15680
2025-09-13 17:07:42.346887,2642,57,5048,116,15616
2025-09-13 17:07:42.566761,2653,57,5032,144,15512
2025-09-13 17:07:42.815281,2653,57,5332,76,15808
2025-09-13 17:07:43.058318,2617,57,5004,116,15648
2025-09-13 17:07:43.289462,2641,54,5028,80,15800
2025-09-13 17:07:43.538123,2640,54,5128,0,15656
2025-09-13 17:07:43.784383,2655,54,5188,100,15792
2025-09-13 17:07:44.037938,2644,54,5144,72,15740
2025-09-13 17:07:44.285037,2636,54,4980,136,15848
2025-09-13 17:07:44.522010,2642,54,5084,144,15672
2025-09-13 17:07:44.779632,2616,54,5240,120,15612
2025-09-13 17:07:45.012066,2655,54,5296,36,15664
2025-09-13 17:07:45.228923,2634,54,5132,168,15736
2025-09-13 17:07:45.455889,2634,54,5092,92,15768
2025-09-13 17:07:45.701994,2640,54,5040,140,15660
2025-09-13 17:07:45.929618,2642,54,5076,80,15532
2025-09-13 17:07:46.132264,2632,54,5172,92,15664
2025-09-13 17:07:46.404054,2650,54,5000,120,15604
2025-09-13 17:07:46.641006,2632,54,5120,108,15716
2025-09-13 17:07:46.807250,2643,54,5196,140,15576
2025-09-13 17:07:47.019277,2642,54,5116,180,15804
2025-09-13 17:07:47.248950,2651,54,5012,0,15744
2025-09-13 17:07:47.488874,2655,54,5156,124,15584
2025-09-13 17:07:47.716945,2635,54,5104,124,15740
2025-09-13 17:07:47.955793,2647,54,5168,96,15656
2025-09-13 17:07:48.215184,2655,54,5124,156,15628
2025-09-13 17:07:48.472011,2634,54,5108,88,15580
2025-09-13 17:07:48.719376,2642,54,5100,76,15740
2025-09-13 17:07:48.960096,2651,54,5240,116,15696
2025-09-13 17:07:49.187292,2638,54,5144,96,15576
2025-09-13 17:07:49.402526,2644,54,5132,72,15528
2025-09-13 17:07:49.636090,2655,54,5156,120,15664
2025-09-13 17:07:49.854846,2655,54,5096,116,15596
2025-09-13 17:07:50.046132,2640,54,5148,60,15704
2025-09-13 17:07:50.224988,2632,54,5092,88,15796
2025-09-13 17:07:50.475872,2643,54,5068,65532,15660
2025-09-13 17:07:50.749775,2640,54,5008,116,15744
2025-09-13 17:07:51.016948,2640,54,5176,80,15776
2025-09-13 17:07:51.256917,2642,54,5124,128,15584
2025-09-13 17:07:51.471602,2644,54,5164,88,15760
2025-09-13 17:07:51.715418,2640,54,5148,56,15768
2025-09-13 17:07:51.951124,2655,54,5008,8,15764
2025-09-13 17:07:52.158512,2643,54,5132,12,15668
2025-09-13 17:07:52.393076,2641,54,5024,136,15684
2025-09-13 17:07:52.625386,2644,54,5112,92,15640
2025-09-13 17:07:52.837175,2642,54,5072,176,15796
2025-09-13 17:07:53.067574,2653,54,5076,144,15764
2025-09-13 17:07:53.286973,2646,54,4968,184,15824
2025-09-13 17:07:53.538601,2644,54,5208,120,15684
2025-09-13 17:07:53.765981,2640,54,5052,72,15796
2025-09-13 17:07:53.970041,2636,54,5040,124,15720
2025-09-13 17:07:54.185089,2640,54,5156,132,15596
2025-09-13 17:07:54.387032,2624,54,5176,124,15616
2025-09-13 17:07:54.630560,2649,54,5068,168,15716
2025-09-13 17:07:54.853420,2655,54,4940,148,15720
2025-09-13 17:07:55.111597,2644,54,5036,64,15740
2025-09-13 17:07:55.341436,2644,54,5144,92,15720
2025-09-13 17:07:55.565549,2641,54,5064,112,15736
2025-09-13 17:07:55.812788,2634,54,5088,16,15672
2025-09-13 17:07:56.013242,2642,54,5180,72,15748
2025-09-13 17:07:56.218202,2640,54,5244,24,15640
2025-09-13 17:07:56.458079,2599,54,5160,44,15740
2025-09-13 17:07:56.658895,2642,54,5172,124,15736
2025-09-13 17:07:56.902316,2655,54,5016,84,15696
2025-09-13 17:07:57.108885,2654,54,5112,120,15672
2025-09-13 17:07:57.330293,2655,54,5076,168,15652
2025-09-13 17:07:57.547094,2624,54,5084,48,15788
2025-09-13 17:07:57.774728,2646,54,5064,156,15692
2025-09-13 17:07:57.994896,2642,54,5100,100,15664
2025-09-13 17:07:58.246963,2644,54,5108,140,15696
2025-09-13 17:07:58.449050,2633,54,5144,56,15756
2025-09-13 17:07:58.666198,2644,54,5020,188,15612
2025-09-13 17:07:58.891429,2639,54,5044,76,15664
2025-09-13 17:07:59.102886,2643,54,5148,44,15652
2025-09-13 17:07:59.323672,2624,54,5188,36,15596
2025-09-13 17:07:59.559315,2634,54,5144,56,15688
2025-09-13 17:07:59.782937,2641,54,5172,36,15716
2025-09-13 17:07:59.949355,2644,54,5032,176,15700
2025-09-13 17:08:00.172156,2644,54,5076,4,15672
2025-09-13 17:08:00.412398,2644,54,5152,92,15632
2025-09-13 17:08:00.660007,2632,54,5128,65508,15692
2025-09-13 17:08:00.906750,2643,54,5056,160,15840
2025-09-13 17:08:01.174794,2642,54,5032,16,15720
2025-09-13 17:08:01.417065,2642,54,4992,148,15532
2025-09-13 17:08:01.684824,2642,54,5120,112,15572
2025-09-13 17:08:01.930640,2628,54,5096,28,15664
2025-09-13 17:08:02.147323,2649,54,5084,128,15672
2025-09-13 17:08:02.412746,2640,54,5056,128,15848
2025-09-13 17:08:02.627725,2636,54,5120,65528,15580
2025-09-13 17:08:02.857479,2641,54,5048,200,15652
2025-09-13 17:08:03.109356,2649,54,4972,72,15680
2025-09-13 17:08:03.317794,2628,54,5060,104,15820
2025-09-13 17:08:03.550037,2643,54,5124,144,15768
2025-09-13 17:08:03.755180,2648,54,5204,64,15696
2025-09-13 17:08:03.952206,2637,54,5208,140,15716
2025-09-13 17:08:04.146234,2638,54,5076,65516,15684
2025-09-13 17:08:04.351093,2631,54,5180,124,15636
2025-09-13 17:08:04.524904,2642,54,5156,52,15624
2025-09-13 17:08:04.784704,2644,54,5040,192,15736
2025-09-13 17:08:05.027981,2656,54,5084,28,15616
2025-09-13 17:08:05.272680,2645,54,5064,204,15604
2025-09-13 17:08:05.514684,2642,54,5136,136,15672
2025-09-13 17:08:05.744150,2639,54,5080,24,15696
2025-09-13 17:08:05.987563,2648,54,5044,140,15744
2025-09-13 17:08:06.217963,2643,54,5100,140,15864
2025-09-13 17:08:06.343089,2646,54,5116,52,15596
2025-09-13 17:08:06.558059,2653,54,5124,156,15728
2025-09-13 17:08:06.759478,2655,54,5020,12,15744
2025-09-13 17:08:06.995175,2633,54,5024,16,15744
2025-09-13 17:08:07.217394,2655,54,5160,128,15712
2025-09-13 17:08:07.420223,2645,54,5124,92,15664
2025-09-13 17:08:07.632223,2632,54,5072,120,15676
2025-09-13 17:08:07.867067,2646,54,5168,40,15644
2025-09-13 17:08:08.072679,2647,54,5000,36,15708
2025-09-13 17:08:08.301466,2645,54,4972,65512,15712
2025-09-13 17:08:08.548997,2640,54,5164,36,15560
2025-09-13 17:08:08.784810,2641,54,5148,64,15596
2025-09-13 17:08:09.035740,2645,54,5156,88,15776
2025-09-13 17:08:09.246131,2643,54,4992,108,15620
2025-09-13 17:08:09.497266,2636,54,5028,32,15664
2025-09-13 17:08:09.729040,2654,54,5128,104,15608
2025-09-13 17:08:09.981727,2643,54,5216,76,15620
2025-09-13 17:08:10.216573,2641,54,5064,104,15716
2025-09-13 17:08:10.451963,2655,54,5104,68,15820
2025-09-13 17:08:10.693090,2640,54,4812,160,15696
2025-09-13 17:08:10.922487,2640,54,5168,68,15664
2025-09-13 17:08:11.163693,2614,54,5156,52,15524
2025-09-13 17:08:11.406699,2642,54,4968,104,15612
2025-09-13 17:08:11.649771,2637,54,5108,40,15720
2025-09-13 17:08:11.862800,2642,54,4996,72,15752
2025-09-13 17:08:12.089290,2649,54,5168,188,15672
2025-09-13 17:08:12.291801,2642,54,5008,76,15572
2025-09-13 17:08:12.533213,2647,54,5052,160,15696
2025-09-13 17:08:12.764571,2647,54,4976,52,15580
2025-09-13 17:08:12.998661,2640,54,4996,216,15664
2025-09-13 17:08:13.247787,2645,54,4976,160,15652
2025-09-13 17:08:13.452812,2641,54,5056,68,15788
2025-09-13 17:08:13.694180,2641,54,5084,224,15664
2025-09-13 17:08:13.905275,2644,54,5164,180,15836
2025-09-13 17:08:14.121258,2640,54,5088,160,15700
2025-09-13 17:08:14.347785,2655,54,5016,56,15592
2025-09-13 17:08:14.554155,2639,54,4976,92,15624
2025-09-13 17:08:14.722700,2647,54,5136,204,15752
2025-09-13 17:08:14.959302,2642,54,5196,164,15648
2025-09-13 17:08:15.161917,2644,54,5056,0,15628
2025-09-13 17:08:15.362573,2640,54,5020,68,15632
2025-09-13 17:08:15.591860,2646,54,5172,168,15608
2025-09-13 17:08:15.803117,2655,54,5088,36,15716
2025-09-13 17:08:16.036875,2642,54,5164,128,15648
2025-09-13 17:08:16.261347,2641,54,5216,24,15644
2025-09-13 17:08:16.489851,2655,54,5116,96,15776
2025-09-13 17:08:16.717806,2644,54,5048,100,15788
2025-09-13 17:08:16.948636,2641,54,5116,56,15684
2025-09-13 17:08:17.148517,2644,54,5060,108,15548
2025-09-13 17:08:17.284902,2640,54,4968,116,15632
2025-09-13 17:08:17.513251,2633,56,5176,128,15776
2025-09-13 17:08:17.749052,2641,56,5160,48,15624
2025-09-13 17:08:17.998186,2659,56,5016,16,15624
2025-09-13 17:08:18.268170,2616,56,5176,172,15540
2025-09-13 17:08:18.507868,2647,56,5184,0,15740
2025-09-13 17:08:18.694722,2640,56,5032,120,15600
2025-09-13 17:08:18.888341,2644,56,5076,124,15608
2025-09-13 17:08:19.069718,2640,56,5072,220,15608
2025-09-13 17:08:19.299000,2656,56,5124,144,15608
2025-09-13 17:08:19.561649,2641,56,5068,188,15696
2025-09-13 17:08:19.834085,2646,56,5340,180,15644
2025-09-13 17:08:20.081886,2640,56,5288,116,15780
2025-09-13 17:08:20.331638,2651,56,5312,88,15672
2025-09-13 17:08:20.558195,2641,56,5012,128,15704
2025-09-13 17:08:20.821050,2652,56,5020,65520,15652
2025-09-13 17:08:21.061765,2655,56,5100,32,15524
2025-09-13 17:08:21.319411,2643,56,5084,96,15744
2025-09-13 17:08:21.576304,2655,56,5040,132,15680
2025-09-13 17:08:21.832855,2643,56,5200,76,15720
2025-09-13 17:08:22.063444,2641,56,5132,92,15592
2025-09-13 17:08:22.274786,2642,56,5256,84,15732
2025-09-13 17:08:22.488060,2642,56,5140,0,15556
2025-09-13 17:08:22.692400,2655,56,5100,65492,15676
2025-09-13 17:08:22.929210,2641,56,5100,36,15696
2025-09-13 17:08:23.146954,2645,56,5068,100,15448
2025-09-13 17:08:23.348944,2640,56,5168,68,15728
2025-09-13 17:08:23.566874,2654,56,5156,140,15716
2025-09-13 17:08:23.786105,2643,56,5140,100,15696
2025-09-13 17:08:24.008015,2639,56,5156,8,15608
2025-09-13 17:08:24.178037,2645,56,5076,76,15680
2025-09-13 17:08:24.385266,2644,56,5060,20,15668
2025-09-13 17:08:24.629056,2631,56,5056,228,15436
2025-09-13 17:08:24.884964,2634,56,5112,148,15716
2025-09-13 17:08:25.113396,2641,56,5024,144,15856
2025-09-13 17:08:25.364739,2610,56,4964,84,15704
2025-09-13 17:08:25.584640,2647,56,5012,72,15640
2025-09-13 17:08:25.819508,2612,56,5260,140,15716
2025-09-13 17:08:26.055941,2647,56,5236,104,15576
2025-09-13 17:08:26.286053,2624,56,5048,65496,15804
2025-09-13 17:08:26.508017,2643,56,4988,116,15672
2025-09-13 17:08:26.728891,2648,56,5056,56,15628
2025-09-13 17:08:26.954423,2645,56,5040,24,15728
2025-09-13 17:08:27.180796,2651,56,4992,56,15744
2025-09-13 17:08:27.398693,2646,56,5036,65512,15776
2025-09-13 17:08:27.646875,2643,56,5140,212,15628
2025-09-13 17:08:27.892867,2635,56,5172,128,15652
2025-09-13 17:08:28.176355,2638,56,5116,160,15640
2025-09-13 17:08:28.385008,2642,56,5020,140,15600
2025-09-13 17:08:28.625221,2645,56,5136,84,15832
2025-09-13 17:08:28.847794,2642,56,4892,76,15664
2025-09-13 17:08:29.087187,2653,56,5112,65512,15656
2025-09-13 17:08:29.298871,2642,56,5136,124,15552
2025-09-13 17:08:29.528422,2655,56,5028,292,15804
2025-09-13 17:08:29.769218,2655,56,4732,36,15700
2025-09-13 17:08:30.001577,2655,56,4900,128,15716
2025-09-13 17:08:30.224951,2644,56,5032,0,15708
2025-09-13 17:08:30.456202,2640,56,5156,128,15600
2025-09-13 17:08:30.714753,2653,56,5156,112,15712
2025-09-13 17:08:30.890257,2642,56,5148,140,15724
2025-09-13 17:08:31.101958,2647,56,5056,108,15748
2025-09-13 17:08:31.312152,2640,56,5012,60,15688
2025-09-13 17:08:31.602677,2640,56,5044,112,15764
2025-09-13 17:08:31.847282,2642,56,4960,68,15768
2025-09-13 17:08:32.109896,2632,56,4880,92,15740
2025-09-13 17:08:32.320831,2642,56,4960,120,15512
2025-09-13 17:08:32.544273,2641,56,5284,112,15624
2025-09-13 17:08:32.786299,2655,56,5296,76,15572
2025-09-13 17:08:33.031950,2647,56,4956,88,15656
2025-09-13 17:08:33.270519,2651,56,4968,65520,15772
2025-09-13 17:08:33.495316,2640,56,5024,65484,15644
2025-09-13 17:08:33.742952,2633,56,5124,0,15748
2025-09-13 17:08:34.010282,2659,56,5200,200,15716
2025-09-13 17:08:34.290158,2640,56,5084,12,15640
2025-09-13 17:08:34.519961,2644,56,4900,104,15708
2025-09-13 17:08:34.779373,2655,56,4964,4,15756
2025-09-13 17:08:35.026853,2655,56,5088,65500,15616
2025-09-13 17:08:35.308477,2643,56,5048,36,15680
2025-09-13 17:08:35.556059,2655,56,4980,228,15668
2025-09-13 17:08:35.794996,2640,56,4960,236,15696
2025-09-13 17:08:36.006393,2656,56,4980,96,15660
2025-09-13 17:08:36.251086,2614,56,4964,60,15672
2025-09-13 17:08:36.504903,2641,56,5268,24,15672
2025-09-13 17:08:36.761879,2648,56,5028,160,15624
2025-09-13 17:08:36.996035,2632,56,4856,172,15616
2025-09-13 17:08:37.228702,2637,56,4828,72,15824
2025-09-13 17:08:37.470761,2655,56,4800,0,15828
2025-09-13 17:08:37.682488,2645,56,4900,188,15660
2025-09-13 17:08:37.897256,2645,56,5036,80,15868
2025-09-13 17:08:38.106944,2647,56,4904,180,15728
2025-09-13 17:08:38.346298,2643,56,4820,108,15816
2025-09-13 17:08:38.602968,2647,56,4800,112,15716
2025-09-13 17:08:38.729180,2641,56,4968,144,15676
2025-09-13 17:08:38.820479,2641,56,5076,68,15688
2025-09-13 17:08:38.899132,2642,56,4804,92,15848
2025-09-13 17:08:38.990068,2642,56,4688,16,15820
2025-09-13 17:08:39.076963,2639,56,4884,120,15736
2025-09-13 17:08:39.166417,2642,56,4964,104,15756
2025-09-13 17:08:39.258753,2646,56,4768,60,15732
2025-09-13 17:08:39.336977,2656,56,4668,92,15700
2025-09-13 17:08:39.415884,2653,56,4808,180,15748
2025-09-13 17:08:39.525978,2655,56,4912,24,15728
2025-09-13 17:08:39.623929,2641,56,4844,152,15772
2025-09-13 17:08:39.702820,2648,56,4728,24,15764
2025-09-13 17:08:39.777816,2642,56,4772,72,15828
2025-09-13 17:08:39.858541,2636,56,4836,72,15820
2025-09-13 17:08:39.952685,2616,56,4912,12,15796
2025-09-13 17:08:40.034947,2645,56,4816,65484,15848
2025-09-13 17:08:40.108977,2645,56,4768,96,15696
2025-09-13 17:08:40.183200,2642,56,4756,132,15832
2025-09-13 17:08:40.264033,2643,56,4712,80,15596
2025-09-13 17:08:40.342088,2655,56,4716,116,15772
2025-09-13 17:08:40.417837,2644,56,4756,156,15700
2025-09-13 17:08:40.496187,2643,56,4828,156,15800
2025-09-13 17:08:40.566409,2642,56,4852,144,15644
2025-09-13 17:08:40.637991,2655,56,4816,120,15808
2025-09-13 17:08:40.710918,2641,56,4716,20,15744
2025-09-13 17:08:40.795560,2643,56,4812,216,15812
2025-09-13 17:08:40.866082,2636,56,4812,65472,15832
2025-09-13 17:08:40.937822,2637,56,4852,88,15872
2025-09-13 17:08:41.007886,2641,56,4792,52,15820
2025-09-13 17:08:41.093259,2640,56,4828,152,15584
2025-09-13 17:08:41.162868,2637,56,4868,112,15708
2025-09-13 17:08:41.231147,2643,56,4960,148,15704
2025-09-13 17:08:41.302303,2655,56,4684,4,15800
2025-09-13 17:08:41.372884,2643,56,4680,168,15704
2025-09-13 17:08:41.440441,2632,56,4864,160,15864
2025-09-13 17:08:41.507346,2640,56,4924,72,15816
2025-09-13 17:08:41.576735,2634,56,4724,76,15752
2025-09-13 17:08:41.642906,2641,56,4608,96,15760
2025-09-13 17:08:41.712749,2645,56,4700,212,15664
2025-09-13 17:08:41.780749,2635,56,4920,65512,15664
2025-09-13 17:08:41.847540,2633,56,4940,76,15708
2025-09-13 17:08:41.916452,2653,56,4700,12,15864
2025-09-13 17:08:41.985145,2641,56,4596,48,15848
2025-09-13 17:08:42.052250,2634,56,4884,172,15776
2025-09-13 17:08:42.136205,2655,56,4848,76,15676
2025-09-13 17:08:42.204057,2633,56,4784,132,15740
2025-09-13 17:08:42.271890,2647,56,4560,100,15800
2025-09-13 17:08:42.341253,2640,56,4728,104,15764
2025-09-13 17:08:42.407143,2641,56,4960,92,15812
2025-09-13 17:08:42.478608,2633,56,4876,44,15724
2025-09-13 17:08:42.550104,2642,56,4752,160,15776
2025-09-13 17:08:42.616422,2643,56,4672,208,15784
2025-09-13 17:08:42.687464,2643,56,4856,164,15744
2025-09-13 17:08:42.755835,2653,56,4880,100,15736
2025-09-13 17:08:42.824189,2641,56,4732,40,15776
2025-09-13 17:08:42.889143,2649,56,4700,128,15804
2025-09-13 17:08:42.956240,2646,56,4784,116,15692
2025-09-13 17:08:43.025349,2644,56,4844,68,15732
2025-09-13 17:08:43.094034,2633,56,4732,120,15800
2025-09-13 17:08:43.176260,2631,56,4824,244,15800
2025-09-13 17:08:43.244311,2636,76,4732,28,15756
2025-09-13 17:08:43.312668,2640,76,4872,156,15760
2025-09-13 17:08:43.378556,2641,76,4856,112,15796
2025-09-13 17:08:43.445016,2632,76,4872,112,15720
2025-09-13 17:08:43.513297,2641,76,4636,92,15720
2025-09-13 17:08:43.582918,2672,76,4660,104,15852
2025-09-13 17:08:43.652008,2642,76,4872,65532,15768
2025-09-13 17:08:43.721118,2643,76,4984,128,15788
2025-09-13 17:08:43.791854,2656,76,4988,28,15684
2025-09-13 17:08:43.863101,2642,76,4896,120,15696
2025-09-13 17:08:43.932326,2652,76,4800,65532,15796
2025-09-13 17:08:44.002895,2647,76,4828,68,15568
2025-09-13 17:08:44.072776,2645,76,4964,92,15676
2025-09-13 17:08:44.159104,2632,76,4912,204,15636
2025-09-13 17:08:44.226343,2640,76,4652,52,15896
2025-09-13 17:08:44.298255,2647,76,4752,80,15664
2025-09-13 17:08:44.367321,2641,76,4968,212,15636
2025-09-13 17:08:44.435084,2647,76,4880,164,15764
2025-09-13 17:08:44.507361,2647,76,4704,136,15728
2025-09-13 17:08:44.581996,2648,76,4692,96,15800
2025-09-13 17:08:44.662219,2645,76,4908,8,15696
2025-09-13 17:08:44.741376,2642,76,4992,128,15816
2025-09-13 17:08:44.811613,2641,76,5012,108,15752
2025-09-13 17:08:44.882769,2641,76,4812,36,15632
2025-09-13 17:08:44.955974,2656,76,4784,44,15900
2025-09-13 17:08:45.026757,2652,76,4928,180,15740
2025-09-13 17:08:45.096259,2631,76,5000,180,15804
2025-09-13 17:08:45.164830,2642,76,5008,60,15708
2025-09-13 17:08:45.247737,2641,76,4908,16,15944
2025-09-13 17:08:45.316752,2643,76,4928,65508,15848
2025-09-13 17:08:45.385894,2643,76,4988,65480,15884
2025-09-13 17:08:45.454628,2644,76,4664,65424,15836
2025-09-13 17:08:45.523263,2632,76,4288,65524,15936
2025-09-13 17:08:45.592220,2630,76,3480,12,15828
2025-09-13 17:08:45.661690,2587,76,3992,432,15648
2025-09-13 17:08:45.731382,2637,76,4852,408,15688
2025-09-13 17:08:45.800534,2647,76,4744,108,15828
2025-09-13 17:08:45.870009,2656,76,4544,40,15772
2025-09-13 17:08:45.940111,2642,76,4780,48,15776
2025-09-13 17:08:46.007653,2643,76,4916,76,15816
2025-09-13 17:08:46.074713,2614,76,5112,65528,15724
2025-09-13 17:08:46.141953,2641,76,5012,65472,15616
2025-09-13 17:08:46.210640,2646,76,4860,304,15812
2025-09-13 17:08:46.292607,2642,76,4728,44,15844
2025-09-13 17:08:46.361706,2645,76,4552,56,15736
2025-09-13 17:08:46.429175,2655,76,4788,48,15796
2025-09-13 17:08:46.501637,2653,76,4880,12,15740
2025-09-13 17:08:46.568402,2643,76,4900,76,15756
2025-09-13 17:08:46.637622,2643,76,4704,128,15756
2025-09-13 17:08:46.707670,2640,76,4592,120,15672
2025-09-13 17:08:46.775871,2638,76,4704,104,15860
2025-09-13 17:08:46.842913,2647,76,4780,4,15816
2025-09-13 17:08:46.915804,2624,76,4692,124,15792
2025-09-13 17:08:46.982509,2647,76,4716,44,15944
2025-09-13 17:08:47.049849,2645,76,4800,132,15748
2025-09-13 17:08:47.116941,2641,76,4840,20,15784
2025-09-13 17:08:47.188106,2640,76,4980,52,15708
2025-09-13 17:08:47.258813,2643,76,4864,196,15752
2025-09-13 17:08:47.339791,2638,76,4728,116,15920
2025-09-13 17:08:47.406861,2643,76,4568,32,15756
2025-09-13 17:08:47.470740,2646,76,5088,124,15744
2025-09-13 17:08:47.537556,2649,76,5000,65464,15780
2025-09-13 17:08:47.607140,2640,76,4836,56,15816
2025-09-13 17:08:47.673207,2681,76,4696,164,15708
2025-09-13 17:08:47.737803,2647,76,4860,104,15788
2025-09-13 17:08:47.805344,2632,76,5036,136,15664
2025-09-13 17:08:47.873816,2645,76,4912,124,15784
2025-09-13 17:08:47.939430,2642,76,4824,92,15720
2025-09-13 17:08:48.004484,2643,76,4748,80,15824
2025-09-13 17:08:48.069828,2646,76,4708,32,15740
2025-09-13 17:08:48.135810,2646,76,4816,116,15712
2025-09-13 17:08:48.200540,2652,76,4720,52,15768
2025-09-13 17:08:48.279225,2645,76,4876,180,15876
2025-09-13 17:08:48.347177,2641,76,4820,140,15768
2025-09-13 17:08:48.415211,2631,76,4740,65516,15808
2025-09-13 17:08:48.481284,2624,76,4832,56,15772
2025-09-13 17:08:48.549367,2643,76,4804,8,15844
2025-09-13 17:08:48.617744,2653,76,4912,56,15812
2025-09-13 17:08:48.682879,2640,76,4800,88,15684
2025-09-13 17:08:48.749497,2633,76,4784,156,15668
2025-09-13 17:08:48.819902,2640,76,4804,44,15664
2025-09-13 17:08:48.887599,2634,76,4900,76,15712
2025-09-13 17:08:48.954957,2620,76,4936,68,15736
2025-09-13 17:08:49.019892,2656,76,4852,172,15696
2025-09-13 17:08:49.088106,2642,76,4820,52,15800
2025-09-13 17:08:49.157388,2646,76,4836,92,15600
2025-09-13 17:08:49.222116,2627,76,4740,180,15768
2025-09-13 17:08:49.306825,2640,76,4780,88,15788
2025-09-13 17:08:49.373988,2641,76,4900,88,15800
2025-09-13 17:08:49.440144,2655,76,4936,52,15708
2025-09-13 17:08:49.510185,2655,76,4912,48,15836
2025-09-13 17:08:49.576820,2612,76,4904,112,15644
2025-09-13 17:08:49.645801,2640,76,4844,60,15652
2025-09-13 17:08:49.710778,2644,76,4840,65528,15812
2025-09-13 17:08:49.778687,2641,76,4888,152,15752
2025-09-13 17:08:49.843699,2639,76,4780,148,15892
2025-09-13 17:08:49.910646,2642,76,4860,92,15684
2025-09-13 17:08:49.974654,2645,76,4884,4,15792
2025-09-13 17:08:50.041846,2643,76,4916,136,15820
2025-09-13 17:08:50.107467,2641,76,4896,156,15640
2025-09-13 17:08:50.175682,2645,76,4764,68,15808
2025-09-13 17:08:50.240420,2645,76,4788,60,15732
2025-09-13 17:08:50.321413,2641,76,4808,52,15700
2025-09-13 17:08:50.385969,2641,76,4884,108,15704
2025-09-13 17:08:50.450938,2636,76,4824,52,15720
2025-09-13 17:08:50.515670,2641,76,4844,108,15780
2025-09-13 17:08:50.581544,2656,76,4888,152,15624
2025-09-13 17:08:50.649572,2640,76,4700,48,15812
2025-09-13 17:08:50.717642,2655,76,4864,124,15776
2025-09-13 17:08:50.782206,2655,76,4856,56,15724
2025-09-13 17:08:50.848427,2632,76,4780,104,15764
2025-09-13 17:08:50.914687,2642,76,4820,112,15692
2025-09-13 17:08:50.979845,2653,76,4752,28,15736
2025-09-13 17:08:51.044849,2646,76,4828,88,15708
2025-09-13 17:08:51.109193,2645,76,4836,104,15808
2025-09-13 17:08:51.177511,2643,76,4632,132,15800
2025-09-13 17:08:51.242109,2636,76,4740,88,15608
2025-09-13 17:08:51.323749,2647,76,4936,116,15884
2025-09-13 17:08:51.389224,2626,76,4820,72,15668
2025-09-13 17:08:51.454309,2640,76,4700,92,15836
2025-09-13 17:08:51.518588,2644,76,4708,52,15828
2025-09-13 17:08:51.583379,2655,76,4928,88,15736
2025-09-13 17:08:51.649378,2642,76,4820,104,15888
2025-09-13 17:08:51.715898,2643,76,4696,56,15720
2025-09-13 17:08:51.781591,2624,76,4884,232,15760
2025-09-13 17:08:51.847850,2647,76,4752,128,15852
2025-09-13 17:08:51.915915,2641,76,4716,60,15848
2025-09-13 17:08:51.982867,2647,76,4844,0,15796
2025-09-13 17:08:52.048842,2642,76,4788,120,15828
2025-09-13 17:08:52.114516,2643,76,4772,92,15624
2025-09-13 17:08:52.180156,2636,76,4804,120,15760
2025-09-13 17:08:52.260216,2633,76,4784,40,15776
2025-09-13 17:08:52.326310,2642,76,4792,8,15828
2025-09-13 17:08:52.391302,2654,76,4748,140,15792
2025-09-13 17:08:52.457504,2647,76,4720,20,15672
2025-09-13 17:08:52.525327,2641,76,4848,164,15788
2025-09-13 17:08:52.589420,2647,76,4692,148,15860
2025-09-13 17:08:52.656481,2641,76,4844,76,15756
2025-09-13 17:08:52.721407,2633,76,4832,32,15600
2025-09-13 17:08:52.786788,2633,76,4780,124,15632
2025-09-13 17:08:52.853854,2644,76,4764,40,15628
2025-09-13 17:08:52.923525,2655,76,4740,96,15796
2025-09-13 17:08:52.991056,2642,76,4688,124,15788
2025-09-13 17:08:53.059107,2642,76,4800,140,15764
2025-09-13 17:08:53.127267,2636,76,4852,76,15684
2025-09-13 17:08:53.197875,2643,76,4880,88,15744
2025-09-13 17:08:53.280905,2637,76,4768,52,15796
2025-09-13 17:08:53.350421,2646,76,4792,68,15748
2025-09-13 17:08:53.419703,2632,76,4816,80,15788
2025-09-13 17:08:53.491701,2645,76,4868,16,15884
2025-09-13 17:08:53.560777,2638,76,4880,116,15736
2025-09-13 17:08:53.631573,2644,76,4760,128,15684
2025-09-13 17:08:53.698601,2640,76,4844,56,15656
2025-09-13 17:08:53.767579,2686,76,4752,96,15820
2025-09-13 17:08:53.839101,2638,76,4780,65516,15896
2025-09-13 17:08:53.903159,2642,76,4860,28,15760
2025-09-13 17:08:53.968804,2651,76,4820,144,15720
2025-09-13 17:08:54.034672,2641,76,4668,140,15828
2025-09-13 17:08:54.099675,2640,76,4792,40,15716
2025-09-13 17:08:54.163679,2646,76,4816,92,15676
2025-09-13 17:08:54.242588,2643,76,4760,100,15732
2025-09-13 17:08:54.309135,2637,76,4700,28,15880
2025-09-13 17:08:54.375168,2644,76,4772,80,15768
2025-09-13 17:08:54.442088,2640,76,4728,196,15732
2025-09-13 17:08:54.508271,2651,76,4852,60,15668
2025-09-13 17:08:54.576029,2646,76,4688,52,15876
2025-09-13 17:08:54.643598,2635,76,4744,92,15784
2025-09-13 17:08:54.707671,2655,76,4784,72,15740
2025-09-13 17:08:54.774169,2640,76,4864,140,15840
2025-09-13 17:08:54.842183,2646,76,4876,108,15804
2025-09-13 17:08:54.906982,2643,76,4764,68,15856
2025-09-13 17:08:54.974051,2645,76,4776,88,15848
2025-09-13 17:08:55.039143,2641,76,4820,144,15792
2025-09-13 17:08:55.104418,2640,76,4768,84,15908
2025-09-13 17:08:55.184469,2641,76,4780,24,15780
2025-09-13 17:08:55.249418,2647,76,4836,100,15800
2025-09-13 17:08:55.315525,2648,76,4820,68,15748
2025-09-13 17:08:55.380500,2642,76,4860,108,15736
2025-09-13 17:08:55.445105,2641,76,4796,80,15864
2025-09-13 17:08:55.511832,2648,76,4840,104,15816
2025-09-13 17:08:55.577678,2632,76,4724,136,15872
2025-09-13 17:08:55.642938,2649,76,4708,68,15692
2025-09-13 17:08:55.710335,2681,76,4776,124,15728
2025-09-13 17:08:55.773397,2641,76,4748,52,15908
2025-09-13 17:08:55.840405,2654,76,4844,96,15848
2025-09-13 17:08:55.903901,2655,76,4784,68,15868
2025-09-13 17:08:55.970984,2651,76,4792,72,15904
2025-09-13 17:08:56.036917,2634,76,4752,168,15536
2025-09-13 17:08:56.101988,2655,76,4780,168,15776
2025-09-13 17:08:56.182871,2632,76,4848,36,15756
2025-09-13 17:08:56.247598,2632,76,4652,20,15600
2025-09-13 17:08:56.311973,2640,76,4768,92,15692
2025-09-13 17:08:56.377737,2648,76,4772,176,15804
2025-09-13 17:08:56.444250,2641,76,4760,72,15704
2025-09-13 17:08:56.508257,2643,76,4756,0,15676
2025-09-13 17:08:56.570409,2645,76,4872,92,15772
2025-09-13 17:08:56.637397,2654,76,4348,65516,15680
2025-09-13 17:08:56.702253,2654,76,4972,56,15880
2025-09-13 17:08:56.770129,2641,76,4972,56,15688
2025-09-13 17:08:56.838983,2634,76,4632,120,15836
2025-09-13 17:08:56.907158,2631,76,4740,160,15760
2025-09-13 17:08:56.972728,2642,76,4896,4,15760
2025-09-13 17:08:57.038145,2629,76,4816,52,15780
2025-09-13 17:08:57.103145,2642,76,4692,80,15876
2025-09-13 17:08:57.182223,2640,76,4688,164,15612
2025-09-13 17:08:57.248284,2644,76,4784,104,15724
2025-09-13 17:08:57.312777,2640,76,4816,128,15704
2025-09-13 17:08:57.383762,2642,76,4736,52,15716
2025-09-13 17:08:57.451690,2612,76,4776,176,15672
2025-09-13 17:08:57.518196,2643,76,4716,88,15876
2025-09-13 17:08:57.583197,2640,76,4664,32,15808
2025-09-13 17:08:57.648684,2655,76,4852,28,15768
2025-09-13 17:08:57.714758,2655,76,4892,184,15732
2025-09-13 17:08:57.780845,2624,76,4808,120,15816
2025-09-13 17:08:57.846840,2630,76,4784,4,15752
2025-09-13 17:08:57.911764,2640,76,4764,92,15672
2025-09-13 17:08:57.976866,2646,76,4748,64,15808
2025-09-13 17:08:58.042046,2654,76,4824,236,15788
2025-09-13 17:08:58.108439,2642,76,4700,96,15732
2025-09-13 17:08:58.186463,2644,76,4916,60,15736
2025-09-13 17:08:58.251929,2655,76,4768,88,15956
2025-09-13 17:08:58.316365,2624,76,4716,64,15816
2025-09-13 17:08:58.381019,2640,76,4752,136,15656
2025-09-13 17:08:58.444612,2640,76,4776,28,15696
2025-09-13 17:08:58.509181,2639,76,4768,112,15680
2025-09-13 17:08:58.575207,2647,76,4772,88,15624
2025-09-13 17:08:58.642224,2643,76,4688,60,15884
2025-09-13 17:08:58.709277,2642,76,4800,100,15788
2025-09-13 17:08:58.776389,2641,76,4820,12,15664
2025-09-13 17:08:58.842283,2633,76,4740,132,15776
2025-09-13 17:08:58.909765,2633,76,4676,160,15812
2025-09-13 17:08:58.974325,2641,76,4704,116,15804
2025-09-13 17:08:59.038325,2646,76,4908,52,15920
2025-09-13 17:08:59.119121,2653,76,4856,148,15764
2025-09-13 17:08:59.184732,2643,76,4788,196,15812
2025-09-13 17:08:59.251524,2642,76,4788,96,15888
2025-09-13 17:08:59.314884,2644,76,4652,156,15756
2025-09-13 17:08:59.382885,2633,76,4820,56,15780
2025-09-13 17:08:59.448154,2640,76,4844,24,15756
2025-09-13 17:08:59.512234,2649,76,4728,48,15728
2025-09-13 17:08:59.577497,2639,76,4756,112,15724
2025-09-13 17:08:59.643589,2641,76,4756,196,15864
2025-09-13 17:08:59.709553,2638,76,4828,172,15684
2025-09-13 17:08:59.776750,2612,76,4788,80,15816
2025-09-13 17:08:59.843750,2630,76,4908,40,15748
2025-09-13 17:08:59.908824,2651,76,4656,152,15720
2025-09-13 17:08:59.975701,2644,76,4748,144,15820
2025-09-13 17:09:00.045706,2644,76,4752,100,15696
2025-09-13 17:09:00.127994,2641,76,4908,152,15808
2025-09-13 17:09:00.193858,2642,76,4704,84,15932
2025-09-13 17:09:00.261693,2640,76,4624,80,15952
2025-09-13 17:09:00.328762,2644,76,4616,132,15788
2025-09-13 17:09:00.392777,2624,76,4748,128,15652
2025-09-13 17:09:00.459694,2645,76,4804,20,15836
2025-09-13 17:09:00.524437,2640,76,4836,136,15780
2025-09-13 17:09:00.592035,2647,76,4740,104,15820
2025-09-13 17:09:00.660118,2642,76,4680,32,15672
2025-09-13 17:09:00.728711,2617,76,4840,96,15788
2025-09-13 17:09:00.794712,2642,76,4800,48,15704
2025-09-13 17:09:00.859710,2643,76,4760,80,15816
2025-09-13 17:09:00.927159,2645,76,4564,60,15684
2025-09-13 17:09:00.994156,2647,76,4856,164,15820
2025-09-13 17:09:01.062157,2617,76,4900,64,15672
2025-09-13 17:09:01.145238,2645,76,4804,56,15892
2025-09-13 17:09:01.212165,2643,76,4620,92,15680
2025-09-13 17:09:01.279590,2637,76,4816,160,15628
2025-09-13 17:09:01.345117,2632,76,4812,128,15856
2025-09-13 17:09:01.412819,2652,76,4784,76,15776
2025-09-13 17:09:01.478845,2652,76,4728,180,15884
2025-09-13 17:09:01.545947,2655,76,4668,136,15824
2025-09-13 17:09:01.610850,2641,76,4812,84,15852
2025-09-13 17:09:01.679091,2645,76,4748,56,15808
2025-09-13 17:09:01.746175,2647,76,4820,76,15764
2025-09-13 17:09:01.812153,2643,76,4748,132,15720
2025-09-13 17:09:01.879154,2651,76,4576,120,15800
2025-09-13 17:09:01.944591,2655,76,4668,68,15848
2025-09-13 17:09:02.010743,2644,76,4736,124,15828
2025-09-13 17:09:02.076468,2640,76,4792,72,15788
2025-09-13 17:09:02.157948,2655,76,4780,144,15684
2025-09-13 17:09:02.223029,2647,76,4664,300,15800
2025-09-13 17:09:02.288885,2644,76,4672,120,15760
2025-09-13 17:09:02.352848,2643,76,4680,104,15592
2025-09-13 17:09:02.420345,2644,76,4620,68,15680
2025-09-13 17:09:02.487344,2650,76,4760,96,15708
2025-09-13 17:09:02.555078,2641,76,4856,204,15792
2025-09-13 17:09:02.621424,2644,76,4648,164,15884
2025-09-13 17:09:02.690482,2641,76,4740,84,15940
2025-09-13 17:09:02.757487,2631,76,4788,92,15800
2025-09-13 17:09:02.825955,2641,76,4672,84,15920
2025-09-13 17:09:02.894278,2640,76,4692,144,15744
2025-09-13 17:09:02.960735,2656,76,4656,65488,15780
2025-09-13 17:09:03.024756,2644,76,4780,152,15680
2025-09-13 17:09:03.105985,2632,76,4764,12,15876
2025-09-13 17:09:03.173469,2642,76,4704,20,15940
2025-09-13 17:09:03.236677,2642,76,4648,48,15752
2025-09-13 17:09:03.304502,2645,76,4664,32,15836
2025-09-13 17:09:03.369137,2647,76,4660,80,15852
2025-09-13 17:09:03.435144,2644,76,4796,32,15848
2025-09-13 17:09:03.501946,2636,76,4696,144,15708
2025-09-13 17:09:03.565952,2641,76,4764,84,15672
2025-09-13 17:09:03.631272,2642,76,4676,52,15732
2025-09-13 17:09:03.696283,2643,80,4680,32,15720
2025-09-13 17:09:03.762275,2637,80,4692,164,15680
2025-09-13 17:09:03.829193,2652,80,4668,44,15816
2025-09-13 17:09:03.895192,2639,80,4728,60,15880
2025-09-13 17:09:03.959542,2641,80,4788,36,15740
2025-09-13 17:09:04.025973,2642,80,4652,48,15904
2025-09-13 17:09:04.106836,2613,80,4724,124,15728
2025-09-13 17:09:04.173673,2647,80,4812,80,15708
2025-09-13 17:09:04.239627,2624,80,4680,124,15756
2025-09-13 17:09:04.305929,2636,80,4680,116,15708
2025-09-13 17:09:04.370697,2645,80,4848,120,15772
2025-09-13 17:09:04.441379,2645,80,4680,48,15696
2025-09-13 17:09:04.508054,2640,80,4592,156,15752
2025-09-13 17:09:04.572933,2655,80,4724,132,15788
2025-09-13 17:09:04.636951,2647,80,4764,104,15816
2025-09-13 17:09:04.701984,2624,80,4820,124,15772
2025-09-13 17:09:04.767960,2653,80,4676,176,15760
2025-09-13 17:09:04.833982,2641,80,4632,88,15868
2025-09-13 17:09:04.902433,2647,80,4740,104,15744
2025-09-13 17:09:04.966452,2655,80,4792,36,15788
2025-09-13 17:09:05.030799,2640,80,4804,72,15828
2025-09-13 17:09:05.112810,2641,80,4708,176,15744
2025-09-13 17:09:05.175809,2633,80,4652,160,15796
2025-09-13 17:09:05.242842,2648,60,4596,28,15764
2025-09-13 17:09:05.308202,2652,60,4716,152,15696
2025-09-13 17:09:05.372269,2633,60,4772,180,15896
2025-09-13 17:09:05.438263,2641,60,4640,164,15860
2025-09-13 17:09:05.506418,2637,60,4728,88,15796
2025-09-13 17:09:05.570914,2643,60,4888,136,15624
2025-09-13 17:09:05.638430,2641,60,4796,152,15732
2025-09-13 17:09:05.704601,2641,60,4716,76,15804
2025-09-13 17:09:05.769949,2639,60,4900,136,15916
2025-09-13 17:09:05.836060,2653,60,4800,132,15820
2025-09-13 17:09:05.901935,2644,60,4652,124,15644
2025-09-13 17:09:05.967453,2641,60,4708,168,15912
2025-09-13 17:09:06.032463,2640,60,4840,148,15744
2025-09-13 17:09:06.111234,2647,60,4692,200,15680
2025-09-13 17:09:06.176233,2655,60,4692,156,15684
2025-09-13 17:09:06.242246,2646,60,4716,212,15852
2025-09-13 17:09:06.311373,2650,60,4876,184,15912
2025-09-13 17:09:06.377771,2642,60,4832,240,15692
2025-09-13 17:09:06.446775,2641,60,4736,280,15812
2025-09-13 17:09:06.512963,2632,60,4776,148,15800
2025-09-13 17:09:06.581964,2651,60,4788,212,15820
2025-09-13 17:09:06.649909,2642,60,4740,168,15828
2025-09-13 17:09:06.718385,2648,60,4816,100,15668
2025-09-13 17:09:06.788540,2655,60,4860,156,15792
2025-09-13 17:09:06.859541,2640,60,4760,192,15848
2025-09-13 17:09:06.930587,2633,60,4828,184,15768
2025-09-13 17:09:07.000507,2680,60,4620,96,15772
2025-09-13 17:09:07.084234,2637,60,4704,88,15788
2025-09-13 17:09:07.154311,2645,60,4880,136,15768
2025-09-13 17:09:07.223808,2652,60,4884,72,15660
2025-09-13 17:09:07.293866,2636,60,4780,80,15832
2025-09-13 17:09:07.363449,2647,60,4828,300,15708
2025-09-13 17:09:07.432026,2634,60,4788,124,15736
2025-09-13 17:09:07.501026,2638,60,4768,144,15616
2025-09-13 17:09:07.571026,2642,60,4868,172,15796
2025-09-13 17:09:07.639728,2644,60,4824,180,15872
2025-09-13 17:09:07.707266,2645,60,4856,208,15752
2025-09-13 17:09:07.776609,2651,60,4808,192,15808
2025-09-13 17:09:07.846696,2642,60,4796,76,15732
2025-09-13 17:09:07.915563,2644,60,4792,108,15768
2025-09-13 17:09:07.998588,2641,60,4728,144,15832
2025-09-13 17:09:08.067580,2638,60,4800,248,15716
2025-09-13 17:09:08.135499,2641,60,4612,156,15640
2025-09-13 17:09:08.206368,2612,60,4644,224,15856
2025-09-13 17:09:08.275622,2644,60,4372,244,15688
2025-09-13 17:09:08.344610,2632,60,4604,148,15912
2025-09-13 17:09:08.416032,2640,60,4996,180,15744
2025-09-13 17:09:08.487110,2653,60,4736,68,15800
2025-09-13 17:09:08.559097,2642,60,4560,152,15832
2025-09-13 17:09:08.632032,2655,60,4596,88,15888
2025-09-13 17:09:08.702113,2612,60,4800,256,15804
2025-09-13 17:09:08.776044,2643,60,4680,180,15748
2025-09-13 17:09:08.850030,2635,60,4652,180,15788
2025-09-13 17:09:08.943809,2640,60,4624,196,15900
2025-09-13 17:09:09.013816,2642,60,4676,188,15760
2025-09-13 17:09:09.082058,2644,60,4736,104,15776
2025-09-13 17:09:09.152012,2653,60,4688,164,15836
2025-09-13 17:09:09.224745,2647,60,4592,176,15836
2025-09-13 17:09:09.294835,2639,60,4632,232,15784
2025-09-13 17:09:09.366172,2612,60,4468,208,15812
2025-09-13 17:09:09.440656,2632,60,4568,168,15916
2025-09-13 17:09:09.509573,2645,60,4540,168,15864
2025-09-13 17:09:09.577657,2624,60,4688,180,15828
2025-09-13 17:09:09.646971,2632,60,4504,208,15744
2025-09-13 17:09:09.719965,2642,60,4652,104,15800
2025-09-13 17:09:09.789185,2640,60,4620,140,15776
2025-09-13 17:09:09.873825,2653,60,4684,76,15784
2025-09-13 17:09:09.943357,2636,60,4700,248,15792
2025-09-13 17:09:10.011966,2640,60,4744,168,15856
2025-09-13 17:09:10.082428,2641,60,4620,176,15860
2025-09-13 17:09:10.150827,2636,60,4652,152,15908
2025-09-13 17:09:10.219750,2643,60,4664,172,15824
2025-09-13 17:09:10.289828,2632,60,4768,148,15872
2025-09-13 17:09:10.357807,2641,60,4828,208,15880
2025-09-13 17:09:10.429524,2653,60,4636,216,15912
2025-09-13 17:09:10.500000,2639,60,4628,192,15880
2025-09-13 17:09:10.571017,2643,60,4816,164,15916
2025-09-13 17:09:10.642614,2624,60,4800,160,15704
2025-09-13 17:09:10.711517,2647,60,4652,208,15788
2025-09-13 17:09:10.781596,2642,60,4596,196,15840
2025-09-13 17:09:10.867239,2640,60,4716,208,15660
2025-09-13 17:09:10.938311,2637,60,4680,172,15896
2025-09-13 17:09:11.005311,2642,60,4644,208,15964
2025-09-13 17:09:11.076311,2641,60,4636,264,15868
2025-09-13 17:09:11.143938,2634,60,4496,172,15916
2025-09-13 17:09:11.213271,2645,60,4628,128,15864
2025-09-13 17:09:11.283525,2642,60,4612,196,15732
2025-09-13 17:09:11.353393,2653,60,4612,112,15784
2025-09-13 17:09:11.422347,2652,60,4720,164,15904
2025-09-13 17:09:11.492660,2655,60,4544,224,15860
2025-09-13 17:09:11.560830,2642,60,4660,152,15808
2025-09-13 17:09:11.628314,2632,60,4584,132,15736
2025-09-13 17:09:11.700229,2655,60,4644,140,15924
2025-09-13 17:09:11.781958,2624,60,4728,172,15764
2025-09-13 17:09:11.852235,2656,60,4704,204,15908
2025-09-13 17:09:11.921001,2640,60,4616,148,15912
2025-09-13 17:09:11.990088,2616,60,4768,212,15824
2025-09-13 17:09:12.060868,2637,60,4692,72,15792
2025-09-13 17:09:12.128014,2636,60,4808,212,15692
2025-09-13 17:09:12.198093,2641,60,4668,136,15676
2025-09-13 17:09:12.271790,2619,60,4728,272,15836
2025-09-13 17:09:12.341929,2636,60,4776,168,15732
2025-09-13 17:09:12.412357,2640,60,4604,196,15732
2025-09-13 17:09:12.480417,2655,60,4772,248,15816
2025-09-13 17:09:12.550846,2641,60,4644,148,15924
2025-09-13 17:09:12.618845,2640,60,4572,268,15840
2025-09-13 17:09:12.701859,2645,60,4696,76,15828
2025-09-13 17:09:12.769845,2610,60,4712,192,15780
2025-09-13 17:09:12.837168,2642,60,4680,52,15816
2025-09-13 17:09:12.903264,2642,60,4620,204,15812
2025-09-13 17:09:12.969729,2641,60,4524,316,15820
2025-09-13 17:09:13.036140,2627,60,4640,160,15660
2025-09-13 17:09:13.102149,2640,60,4808,148,15912
2025-09-13 17:09:13.168177,2654,60,4684,192,15812
2025-09-13 17:09:13.235395,2654,60,4804,136,15880
2025-09-13 17:09:13.300443,2655,60,4672,264,15888
2025-09-13 17:09:13.366683,2640,60,4716,132,15796
2025-09-13 17:09:13.430975,2642,60,4740,180,15776
2025-09-13 17:09:13.496540,2643,60,4808,92,15740
2025-09-13 17:09:13.563545,2647,60,4728,204,15864
2025-09-13 17:09:13.629870,2640,60,4648,144,15692
2025-09-13 17:09:13.712901,2643,60,4600,316,15796
2025-09-13 17:09:13.776816,2637,60,4644,152,15736
2025-09-13 17:09:13.842765,2616,60,4756,160,15828
2025-09-13 17:09:13.907896,2636,60,4636,192,15888
2025-09-13 17:09:13.973973,2641,60,4672,240,15804
2025-09-13 17:09:14.039973,2643,60,4712,128,15768
2025-09-13 17:09:14.103973,2632,60,4716,84,15624
2025-09-13 17:09:14.167279,2641,60,4668,268,15972
2025-09-13 17:09:14.237193,2642,60,4576,244,15940
2025-09-13 17:09:14.305578,2638,60,4656,200,15900
2025-09-13 17:09:14.373135,2641,60,4720,172,15780
2025-09-13 17:09:14.439740,2637,60,4640,152,15820
2025-09-13 17:09:14.504335,2639,60,4696,184,15712
2025-09-13 17:09:14.570814,2636,60,4712,232,15884
2025-09-13 17:09:14.636781,2641,60,4604,104,15836
2025-09-13 17:09:14.714114,2653,60,4628,192,15856
2025-09-13 17:09:14.780122,2643,60,4636,188,15824
2025-09-13 17:09:14.846063,2642,60,4700,192,15672
2025-09-13 17:09:14.912156,2632,60,4740,200,15672
2025-09-13 17:09:14.981249,2638,60,4612,172,15940
2025-09-13 17:09:15.046951,2632,60,4760,104,15860
2025-09-13 17:09:15.114518,2632,60,4724,160,15848
2025-09-13 17:09:15.178454,2638,60,4700,116,15876
2025-09-13 17:09:15.248361,2638,60,4648,128,15840
2025-09-13 17:09:15.315477,2655,60,4752,212,15812
2025-09-13 17:09:15.383581,2633,60,4716,68,15780
2025-09-13 17:09:15.448580,2642,60,4668,156,15796
2025-09-13 17:09:15.516669,2624,60,4592,124,15780
2025-09-13 17:09:15.583187,2645,60,4736,240,15780
2025-09-13 17:09:15.665037,2637,60,4676,160,15804
2025-09-13 17:09:15.730077,2632,60,4740,220,15640
2025-09-13 17:09:15.797437,2643,60,4692,204,15800
2025-09-13 17:09:15.863933,2632,60,4728,144,15744
2025-09-13 17:09:15.930925,2642,60,4796,128,15916
2025-09-13 17:09:15.995279,2655,60,4720,144,15788
2025-09-13 17:09:16.062096,2655,60,4632,168,15752
2025-09-13 17:09:16.127085,2647,60,4664,168,15808
2025-09-13 17:09:16.195085,2640,60,4744,272,15776
2025-09-13 17:09:16.264085,2645,60,4824,112,15752
2025-09-13 17:09:16.334085,2640,60,4748,44,15676
2025-09-13 17:09:16.400379,2642,60,4816,296,15844
2025-09-13 17:09:16.468881,2645,60,4556,240,15804
2025-09-13 17:09:16.536975,2645,60,4556,180,15696
2025-09-13 17:09:16.601682,2643,60,4776,152,15844
2025-09-13 17:09:16.682577,2632,60,4720,136,15708
2025-09-13 17:09:16.747684,2646,60,4708,144,15732
2025-09-13 17:09:16.813707,2640,60,4692,176,15796
2025-09-13 17:09:16.879676,2646,60,4656,208,15788
2025-09-13 17:09:16.945814,2641,60,4628,160,15752
2025-09-13 17:09:17.011894,2641,60,4760,256,15784
2025-09-13 17:09:17.078778,2626,60,4644,272,15872
2025-09-13 17:09:17.143986,2640,60,4636,208,15812
2025-09-13 17:09:17.208979,2655,60,4628,176,15796
2025-09-13 17:09:17.276309,2640,60,4704,192,15968
2025-09-13 17:09:17.342399,2640,60,4796,140,15800
2025-09-13 17:09:17.408544,2643,60,4752,188,15984
2025-09-13 17:09:17.474234,2651,60,4696,132,15924
2025-09-13 17:09:17.540817,2643,60,4544,228,15820
2025-09-13 17:09:17.609070,2639,60,4692,204,15840
2025-09-13 17:09:17.690118,2643,60,4824,204,15756
2025-09-13 17:09:17.756314,2643,60,4756,128,15752
2025-09-13 17:09:17.822133,2648,60,4552,176,15772
2025-09-13 17:09:17.887070,2637,60,4628,184,15868
2025-09-13 17:09:17.950192,2642,60,4656,88,15800
2025-09-13 17:09:18.014583,2652,60,4816,284,15856
2025-09-13 17:09:18.080533,2624,60,4688,244,15740
2025-09-13 17:09:18.146543,2653,60,4596,160,15760
2025-09-13 17:09:18.213615,2639,60,4604,216,15744
2025-09-13 17:09:18.280263,2635,60,4720,252,15760
2025-09-13 17:09:18.345372,2640,60,4668,216,15836
2025-09-13 17:09:18.410737,2647,60,4708,244,15836
2025-09-13 17:09:18.479021,2645,60,4588,156,15812
2025-09-13 17:09:18.547692,2652,60,4740,96,15700
2025-09-13 17:09:18.628736,2640,60,4744,124,15788
2025-09-13 17:09:18.692735,2642,60,4784,96,15872
2025-09-13 17:09:18.758816,2643,60,4648,212,15872
2025-09-13 17:09:18.823816,2645,60,4740,144,15740
2025-09-13 17:09:18.892551,2639,60,4644,120,15800
2025-09-13 17:09:18.958551,2651,60,4624,212,15868
2025-09-13 17:09:19.023115,2645,60,4684,204,15796
2025-09-13 17:09:19.090116,2645,60,4764,120,15816
2025-09-13 17:09:19.156544,2640,60,4680,208,15764
2025-09-13 17:09:19.221634,2637,60,4708,124,15788
2025-09-13 17:09:19.288168,2612,60,4656,140,15784
2025-09-13 17:09:19.353865,2638,60,4788,160,15868
2025-09-13 17:09:19.420931,2641,60,4540,168,15896
2025-09-13 17:09:19.504317,2640,60,4688,60,15852
2025-09-13 17:09:19.569323,2641,60,4720,188,15776
2025-09-13 17:09:19.652317,2642,60,4712,208,15776
2025-09-13 17:09:19.717233,2652,60,4768,232,15748
2025-09-13 17:09:19.782425,2629,60,4668,84,15664
2025-09-13 17:09:19.847424,2639,60,4748,280,15864
2025-09-13 17:09:19.914717,2647,60,4572,216,15740
2025-09-13 17:09:19.981690,2655,60,4756,128,15932
2025-09-13 17:09:20.048082,2640,60,4584,76,15828
2025-09-13 17:09:20.114100,2645,60,4700,184,15740
2025-09-13 17:09:20.180106,2648,60,4620,208,15792
2025-09-13 17:09:20.246120,2641,60,4704,192,15776
2025-09-13 17:09:20.310106,2612,60,4608,108,15848
2025-09-13 17:09:20.378107,2637,60,4712,180,15736
2025-09-13 17:09:20.445376,2640,60,4624,148,15868
2025-09-13 17:09:20.509639,2652,60,4604,144,15776
2025-09-13 17:09:20.574556,2642,60,4696,128,15864
2025-09-13 17:09:20.655556,2634,60,4744,124,15704
2025-09-13 17:09:20.722747,2651,60,4772,148,15896
2025-09-13 17:09:20.790828,2637,60,4668,180,15760
2025-09-13 17:09:20.858844,2640,60,4604,164,15772
2025-09-13 17:09:20.930557,2648,60,4552,104,15912
2025-09-13 17:09:21.000421,2643,60,4632,144,15812
2025-09-13 17:09:21.069802,2641,60,4732,148,15812
2025-09-13 17:09:21.140808,2634,60,4656,208,15828
2025-09-13 17:09:21.211603,2638,60,4572,164,15676
2025-09-13 17:09:21.280945,2648,60,4620,156,15812
2025-09-13 17:09:21.350074,2643,60,4728,76,15852
2025-09-13 17:09:21.418159,2643,60,4584,168,15900
2025-09-13 17:09:21.488174,2642,60,4552,88,15868
2025-09-13 17:09:21.573322,2640,60,4648,172,15884
2025-09-13 17:09:21.644312,2636,60,4748,192,15832
2025-09-13 17:09:21.711470,2641,60,4744,132,15812
2025-09-13 17:09:21.779687,2631,60,4812,100,15708
2025-09-13 17:09:21.849505,2638,60,4676,180,15848
2025-09-13 17:09:21.918204,2641,60,4416,184,15832
2025-09-13 17:09:21.986451,2624,60,4684,180,15824
2025-09-13 17:09:22.055965,2642,60,4740,104,15900
2025-09-13 17:09:22.125182,2655,60,4688,240,15740
2025-09-13 17:09:22.194465,2655,60,4676,348,15840
2025-09-13 17:09:22.265386,2612,60,4648,148,15888
2025-09-13 17:09:22.337386,2641,60,4580,148,15744
2025-09-13 17:09:22.407393,2633,60,4704,216,15952
2025-09-13 17:09:22.477499,2653,60,4656,224,15900
2025-09-13 17:09:22.560880,2641,60,4660,92,15788
2025-09-13 17:09:22.628092,2650,60,4620,208,15756
2025-09-13 17:09:22.697197,2642,60,4680,212,15804
2025-09-13 17:09:22.766285,2632,60,4712,88,15760
2025-09-13 17:09:22.834546,2640,60,4684,140,15860
2025-09-13 17:09:22.905743,2652,60,4576,196,15840
2025-09-13 17:09:22.976743,2637,60,4600,164,15812
2025-09-13 17:09:23.046746,2641,60,4668,148,15900
2025-09-13 17:09:23.116899,2640,60,4612,216,15832
2025-09-13 17:09:23.186021,2653,60,4844,168,15812
2025-09-13 17:09:23.256907,2641,60,4732,136,15748
2025-09-13 17:09:23.323708,2641,60,4616,204,15836
2025-09-13 17:09:23.395393,2641,60,4564,224,15832
2025-09-13 17:09:23.477483,2626,60,4780,132,15720
2025-09-13 17:09:23.547112,2640,60,4624,180,15744
2025-09-13 17:09:23.618263,2632,60,4764,140,15964
2025-09-13 17:09:23.685279,2632,60,4712,236,15768
2025-09-13 17:09:23.755432,2647,60,4792,180,15788
2025-09-13 17:09:23.822529,2642,60,4580,216,15736
2025-09-13 17:09:23.891845,2612,60,4640,100,15884
2025-09-13 17:09:23.958074,2641,60,4716,236,15936
2025-09-13 17:09:24.029543,2636,60,4604,228,15788
2025-09-13 17:09:24.101542,2624,60,4660,120,15900
2025-09-13 17:09:24.170542,2636,60,4740,216,15788
2025-09-13 17:09:24.239625,2643,60,4656,208,15792
2025-09-13 17:09:24.311542,2640,60,4680,216,15880
2025-09-13 17:09:24.397136,2637,60,4680,216,15760
2025-09-13 17:09:24.466360,2640,60,4716,124,15732
2025-09-13 17:09:24.538348,2640,60,4644,196,15684
2025-09-13 17:09:24.609190,2638,60,4704,164,15864
2025-09-13 17:09:24.676189,2639,60,4692,48,15880
2025-09-13 17:09:24.742184,2638,60,4704,160,15804
2025-09-13 17:09:24.807335,2636,60,4740,204,15772
2025-09-13 17:09:24.872712,2632,60,4608,172,15784
2025-09-13 17:09:24.939393,2643,71,4784,8,15844
2025-09-13 17:09:25.005724,2637,71,4804,104,15796
2025-09-13 17:09:25.072869,2643,71,4832,88,15736
2025-09-13 17:09:25.136944,2638,71,4684,232,15788
2025-09-13 17:09:25.204189,2642,71,4632,312,15852
2025-09-13 17:09:25.270741,2644,71,4700,188,15644
2025-09-13 17:09:25.350624,2641,71,4740,124,15836
2025-09-13 17:09:25.416973,2644,71,4816,156,15728
2025-09-13 17:09:25.481422,2647,71,4632,224,15740
2025-09-13 17:09:25.546131,2636,71,4604,208,15904
2025-09-13 17:09:25.611759,2636,71,4628,100,15760
2025-09-13 17:09:25.676665,2641,71,4716,128,15816
2025-09-13 17:09:25.742749,2650,71,4608,260,15904
2025-09-13 17:09:25.808443,2679,71,4720,84,15848
2025-09-13 17:09:25.873485,2640,71,4724,80,15692
2025-09-13 17:09:25.940443,2643,71,4708,240,15920
2025-09-13 17:09:26.008771,2651,71,4760,80,15756
2025-09-13 17:09:26.075351,2638,71,4720,184,15904
2025-09-13 17:09:26.141916,2641,71,4696,212,15736
2025-09-13 17:09:26.206125,2642,71,4620,156,15748
2025-09-13 17:09:26.276124,2640,71,4680,216,15680
2025-09-13 17:09:26.357489,2643,71,4784,204,15732
2025-09-13 17:09:26.422452,2642,71,4660,208,15884
2025-09-13 17:09:26.488396,2641,71,4692,112,15792
2025-09-13 17:09:26.552820,2653,71,4668,188,15736
2025-09-13 17:09:26.619799,2616,71,4752,192,15708
2025-09-13 17:09:26.683016,2654,71,4708,168,15728
2025-09-13 17:09:26.747430,2642,71,4768,116,15780
2025-09-13 17:09:26.814407,2642,71,4684,144,15848
2025-09-13 17:09:26.879514,2632,71,4680,124,15840
2025-09-13 17:09:26.944114,2633,71,4648,164,15768
2025-09-13 17:09:27.009153,2641,71,4768,284,15904
2025-09-13 17:09:27.073581,2642,71,4704,100,15764
2025-09-13 17:09:27.141568,2618,71,4768,120,15828
2025-09-13 17:09:27.206635,2651,71,4728,92,15680
2025-09-13 17:09:27.272570,2652,71,4784,148,15848
2025-09-13 17:09:27.352588,2638,71,4780,120,15752
2025-09-13 17:09:27.419627,2638,71,4768,104,15720
2025-09-13 17:09:27.485346,2639,71,4828,160,15680
2025-09-13 17:09:27.550070,2611,71,4688,208,15824
2025-09-13 17:09:27.616650,2638,71,4724,204,15872
2025-09-13 17:09:27.681741,2649,71,4752,132,15784
2025-09-13 17:09:27.747747,2656,71,4772,52,15848
2025-09-13 17:09:27.813587,2637,71,4600,96,15764
2025-09-13 17:09:27.881107,2641,71,4760,164,15696
2025-09-13 17:09:27.949471,2648,71,4664,216,15704
2025-09-13 17:09:28.014882,2646,71,4764,152,15812
2025-09-13 17:09:28.080732,2616,71,4652,68,15720
2025-09-13 17:09:28.149094,2647,71,4732,112,15904
2025-09-13 17:09:28.216009,2644,71,4644,168,15764
2025-09-13 17:09:28.281911,2637,71,4748,132,15812
2025-09-13 17:09:28.364161,2628,71,4764,208,15748
2025-09-13 17:09:28.432606,2643,71,4644,272,15804
2025-09-13 17:09:28.502329,2640,71,4612,180,15752
2025-09-13 17:09:28.572362,2640,71,4648,120,15764
2025-09-13 17:09:28.642376,2639,71,4732,196,15832
2025-09-13 17:09:28.710275,2643,71,4680,256,15804
2025-09-13 17:09:28.777491,2644,71,4724,200,15736
2025-09-13 17:09:28.848428,2643,71,4740,160,15696
2025-09-13 17:09:28.919752,2653,71,4628,144,15712
2025-09-13 17:09:28.990548,2642,71,4724,148,15784
2025-09-13 17:09:29.060724,2646,71,4668,80,15848
2025-09-13 17:09:29.129809,2641,71,4812,100,15796
2025-09-13 17:09:29.200950,2636,71,4732,152,15704
2025-09-13 17:09:29.283677,2640,71,4716,132,15784
2025-09-13 17:09:29.352970,2629,71,4656,160,15696
2025-09-13 17:09:29.422016,2655,71,4656,148,15828
2025-09-13 17:09:29.493448,2643,71,4704,228,15752
2025-09-13 17:09:29.562536,2634,71,4720,60,15744
2025-09-13 17:09:29.630447,2643,71,4660,112,15816
2025-09-13 17:09:29.701026,2643,71,4688,188,15728
2025-09-13 17:09:29.769614,2638,71,4724,168,15760
2025-09-13 17:09:29.838612,2653,71,4844,120,15732
2025-09-13 17:09:29.908015,2640,71,4688,72,15720
2025-09-13 17:09:29.977555,2639,71,4628,224,15832
2025-09-13 17:09:30.046615,2640,71,4656,188,15836
2025-09-13 17:09:30.116616,2639,71,4692,160,15832
2025-09-13 17:09:30.199900,2641,71,4728,164,15820
2025-09-13 17:09:30.268415,2643,71,4780,72,15876
2025-09-13 17:09:30.338183,2642,71,4672,172,15864
2025-09-13 17:09:30.408246,2639,71,4668,224,15928
2025-09-13 17:09:30.477959,2616,71,4792,228,15812
2025-09-13 17:09:30.552046,2638,71,4712,200,15812
2025-09-13 17:09:30.621048,2640,71,4696,44,15788
2025-09-13 17:09:30.691965,2624,71,4692,148,15832
2025-09-13 17:09:30.760898,2655,71,4680,144,15880
2025-09-13 17:09:30.830730,2645,71,4656,176,15800
2025-09-13 17:09:30.899149,2643,71,4600,300,15856
2025-09-13 17:09:30.969231,2649,71,4620,208,15852
2025-09-13 17:09:31.040122,2653,71,4684,160,15788
2025-09-13 17:09:31.124303,2640,71,4744,208,15780
2025-09-13 17:09:31.192854,2621,71,4668,108,15684
2025-09-13 17:09:31.264173,2640,71,4604,180,15768
2025-09-13 17:09:31.332593,2642,71,4760,204,15860
2025-09-13 17:09:31.402532,2647,71,4728,112,15820
2025-09-13 17:09:31.470690,2655,71,4708,196,15768
2025-09-13 17:09:31.541273,2642,71,4752,136,15780
2025-09-13 17:09:31.610145,2617,71,4684,144,15876
2025-09-13 17:09:31.680921,2655,71,4728,84,15680
2025-09-13 17:09:31.750097,2641,71,4784,92,15664
2025-09-13 17:09:31.821102,2642,71,4760,220,15856
2025-09-13 17:09:31.891712,2642,71,4784,196,15760
2025-09-13 17:09:31.963054,2613,71,4716,180,15780
2025-09-13 17:09:32.032028,2655,71,4668,112,15804
2025-09-13 17:09:32.115030,2653,71,4692,40,15732
2025-09-13 17:09:32.183030,2648,71,4644,104,15744
2025-09-13 17:09:32.253030,2637,71,4712,160,15752
2025-09-13 17:09:32.325270,2643,71,4740,100,15792
2025-09-13 17:09:32.394271,2641,71,4640,116,15744
2025-09-13 17:09:32.464292,2640,71,4672,164,15784
2025-09-13 17:09:32.533277,2643,71,4648,136,15724
2025-09-13 17:09:32.602141,2642,71,4568,196,15688
2025-09-13 17:09:32.672514,2655,71,4700,204,15872
2025-09-13 17:09:32.741446,2642,71,4664,184,15700
2025-09-13 17:09:32.809858,2642,71,4804,100,15896
2025-09-13 17:09:32.879355,2640,71,4736,128,15732
2025-09-13 17:09:32.949356,2643,71,4716,80,15800
2025-09-13 17:09:33.033382,2649,71,4756,172,15852
2025-09-13 17:09:33.101312,2639,71,4708,92,15944
2025-09-13 17:09:33.170340,2641,71,4764,164,15820
2025-09-13 17:09:33.240368,2683,71,4672,20,15828
2025-09-13 17:09:33.306754,2642,71,4776,180,15772
2025-09-13 17:09:33.374751,2640,71,4688,164,15852
2025-09-13 17:09:33.444831,2632,71,4888,224,15860
2025-09-13 17:09:33.510750,2648,71,4732,24,15708
2025-09-13 17:09:33.582749,2643,71,4724,148,15752
2025-09-13 17:09:33.650758,2639,71,4632,164,15708
2025-09-13 17:09:33.718471,2612,71,4388,252,15920
2025-09-13 17:09:33.787177,2639,71,4336,224,15764
2025-09-13 17:09:33.852182,2641,71,4292,308,15912
2025-09-13 17:09:33.921997,2645,71,4460,156,16012
2025-09-13 17:09:34.012845,2633,71,4740,180,15772
2025-09-13 17:09:34.080577,2634,71,4900,164,15832
2025-09-13 17:09:34.144091,2643,71,5076,164,15668
2025-09-13 17:09:34.213291,2640,71,5208,160,15812
2025-09-13 17:09:34.279620,2647,71,4980,132,15852
2025-09-13 17:09:34.343666,2653,71,4968,44,15736
2025-09-13 17:09:34.409977,2654,71,4872,84,15804
2025-09-13 17:09:34.475896,2655,71,4628,248,15736
2025-09-13 17:09:34.545020,2647,71,4620,220,15808
2025-09-13 17:09:34.611516,2655,71,4588,180,15772
2025-09-13 17:09:34.678574,2654,71,4684,168,15728
2025-09-13 17:09:34.745055,2647,71,4732,72,15632
2025-09-13 17:09:34.811482,2639,71,4664,196,15840
2025-09-13 17:09:34.877710,2640,71,4680,148,15852
2025-09-13 17:09:34.945099,2655,71,4592,172,15828
2025-09-13 17:09:35.025231,2637,71,4736,136,15740
2025-09-13 17:09:35.090372,2646,71,4764,68,15900
2025-09-13 17:09:35.155140,2645,71,5040,96,15728
2025-09-13 17:09:35.220630,2646,71,4952,28,15600
2025-09-13 17:09:35.288630,2647,71,5100,44,15664
2025-09-13 17:09:35.354053,2642,75,4964,160,15844
2025-09-13 17:09:35.418216,2647,75,4908,148,15656
2025-09-13 17:09:35.483901,2654,75,4876,56,15660
2025-09-13 17:09:35.552902,2653,75,4808,192,15724
2025-09-13 17:09:35.618948,2655,75,4668,196,15816
2025-09-13 17:09:35.684111,2637,75,4644,248,15884
2025-09-13 17:09:35.747727,2641,75,4816,172,15764
2025-09-13 17:09:35.816781,2644,75,4912,240,15800
2025-09-13 17:09:35.883275,2640,75,4748,164,15804
2025-09-13 17:09:35.947682,2638,75,4844,196,15812
2025-09-13 17:09:36.026914,2643,75,4752,40,15912
2025-09-13 17:09:36.093054,2641,75,4764,108,15636
2025-09-13 17:09:36.161534,2632,75,5072,188,15656
2025-09-13 17:09:36.227650,2638,75,4852,140,15688
2025-09-13 17:09:36.297863,2646,75,4836,176,15792
2025-09-13 17:09:36.364938,2647,75,4928,160,15752
2025-09-13 17:09:36.434864,2648,75,4844,65520,15608
2025-09-13 17:09:36.503480,2624,75,4912,44,15632
2025-09-13 17:09:36.570485,2643,75,5008,104,15812
2025-09-13 17:09:36.633485,2648,75,4940,184,15720
2025-09-13 17:09:36.699485,2645,75,4824,152,15708
2025-09-13 17:09:36.767557,2635,75,4816,100,15804
2025-09-13 17:09:36.832706,2645,75,5056,176,15700
2025-09-13 17:09:36.898630,2655,75,4960,152,15656
2025-09-13 17:09:36.964008,2634,75,4816,128,15904
2025-09-13 17:09:37.044789,2655,75,4800,140,15652
2025-09-13 17:09:37.110879,2636,75,4704,24,15588
2025-09-13 17:09:37.174992,2644,75,4796,108,15760
2025-09-13 17:09:37.240174,2640,75,4804,44,15876
2025-09-13 17:09:37.305479,2648,75,4952,112,15736
2025-09-13 17:09:37.368126,2654,75,4768,120,15800
2025-09-13 17:09:37.436561,2612,75,4844,164,15772
2025-09-13 17:09:37.503612,2645,75,4888,224,15736
2025-09-13 17:09:37.571914,2640,75,4828,256,15828
2025-09-13 17:09:37.638169,2645,75,4724,64,15848
2025-09-13 17:09:37.704477,2643,75,4748,36,15768
2025-09-13 17:09:37.771845,2655,75,4944,64,15736
2025-09-13 17:09:37.837045,2645,75,4976,100,15796
2025-09-13 17:09:37.904724,2641,75,4848,112,15716
2025-09-13 17:09:37.986784,2638,75,4944,156,15600
2025-09-13 17:09:38.053790,2637,75,5020,28,15696
2025-09-13 17:09:38.120877,2642,75,4928,168,15788
2025-09-13 17:09:38.188565,2616,75,4740,168,15884
2025-09-13 17:09:38.251731,2642,75,4644,172,15640
2025-09-13 17:09:38.318170,2655,75,4892,140,15748
2025-09-13 17:09:38.381334,2652,75,4932,220,15636
2025-09-13 17:09:38.446061,2642,75,4680,156,15852
2025-09-13 17:09:38.511886,2648,75,4740,180,15644
2025-09-13 17:09:38.576966,2647,75,4828,140,15740
2025-09-13 17:09:38.642057,2640,75,4828,72,15708
2025-09-13 17:09:38.709443,2635,75,4892,176,15792
2025-09-13 17:09:38.774504,2647,75,4892,108,15772
2025-09-13 17:09:38.841507,2655,75,4788,140,15764
2025-09-13 17:09:38.906682,2639,75,4820,232,15816
2025-09-13 17:09:38.986683,2645,75,4772,280,15864
2025-09-13 17:09:39.048906,2640,75,5052,108,15656
2025-09-13 17:09:39.114436,2640,75,4844,240,15684
2025-09-13 17:09:39.178530,2632,75,4840,156,15784
2025-09-13 17:09:39.251076,2641,75,4672,332,15720
2025-09-13 17:09:39.317994,2651,75,4716,112,15800
2025-09-13 17:09:39.398268,2641,75,4780,100,15780
2025-09-13 17:09:39.467656,2641,75,5032,4,15684
2025-09-13 17:09:39.537050,2625,75,4992,40,15776
2025-09-13 17:09:39.607706,2624,75,4792,44,15768
2025-09-13 17:09:39.676668,2651,75,4748,180,15824
2025-09-13 17:09:39.745131,2644,75,4868,316,15820
2025-09-13 17:09:39.814129,2641,75,4816,172,15680
2025-09-13 17:09:39.885187,2639,75,4740,200,15816
2025-09-13 17:09:39.957206,2642,75,4724,116,15628
2025-09-13 17:09:40.039289,2651,75,4756,148,15860
2025-09-13 17:09:40.107283,2642,75,4732,256,15760
2025-09-13 17:09:40.175941,2640,75,4732,176,15696
2025-09-13 17:09:40.243039,2616,75,4928,100,15708
2025-09-13 17:09:40.322038,2637,75,4988,44,15668
2025-09-13 17:09:40.395033,2641,75,4880,116,15596
2025-09-13 17:09:40.465447,2638,75,4780,24,15872
2025-09-13 17:09:40.538902,2657,75,4904,212,15712
2025-09-13 17:09:40.610980,2640,75,4988,180,15868
2025-09-13 17:09:40.682906,2653,75,4872,156,15792
2025-09-13 17:09:40.754903,2643,75,4832,196,15720
2025-09-13 17:09:40.826096,2640,75,4760,184,15708
2025-09-13 17:09:40.897186,2645,75,4728,128,15700
2025-09-13 17:09:40.983163,2644,75,4856,188,15828
2025-09-13 17:09:41.055311,2641,75,4928,108,15580
2025-09-13 17:09:41.127912,2645,75,4884,172,15616
2025-09-13 17:09:41.203300,2642,75,4764,56,15680
2025-09-13 17:09:41.273343,2647,75,4860,120,15776
2025-09-13 17:09:41.341395,2653,75,4896,64,15636
2025-09-13 17:09:41.412784,2647,75,4880,128,15924
2025-09-13 17:09:41.479231,2634,75,4832,244,15756
2025-09-13 17:09:41.546391,2642,75,4788,224,15840
2025-09-13 17:09:41.615672,2642,75,4776,264,15744
2025-09-13 17:09:41.682594,2654,75,4836,184,15816
2025-09-13 17:09:41.747680,2638,75,4764,88,15808
2025-09-13 17:09:41.817486,2641,75,4852,156,15896
2025-09-13 17:09:41.882918,2646,75,4920,124,15788
2025-09-13 17:09:41.963801,2641,75,4840,65500,15756
2025-09-13 17:09:42.031310,2643,75,4944,80,15776
2025-09-13 17:09:42.096341,2643,75,4688,192,15788
2025-09-13 17:09:42.161437,2639,75,4876,176,15868
2025-09-13 17:09:42.226884,2644,75,4984,180,15756
2025-09-13 17:09:42.294897,2640,75,4988,132,15748
2025-09-13 17:09:42.361264,2638,75,4784,224,15740
2025-09-13 17:09:42.425323,2640,75,4740,188,15732
2025-09-13 17:09:42.491858,2645,75,4848,144,15808
2025-09-13 17:09:42.557088,2646,75,4956,212,15772
2025-09-13 17:09:42.621026,2636,75,4896,264,15580
2025-09-13 17:09:42.684326,2646,75,4780,132,15732
2025-09-13 17:09:42.750596,2645,75,4664,112,15720
2025-09-13 17:09:42.815598,2640,75,4844,65528,15728
2025-09-13 17:09:42.881547,2646,75,4820,128,15856
2025-09-13 17:09:42.963547,2646,75,4720,140,15792
2025-09-13 17:09:43.029936,2641,75,4860,264,15780
2025-09-13 17:09:43.094052,2642,75,4792,156,15696
2025-09-13 17:09:43.158134,2655,75,4752,128,15832
2025-09-13 17:09:43.224218,2640,75,4804,120,15572
2025-09-13 17:09:43.290819,2652,75,4744,128,15720
2025-09-13 17:09:43.357382,2651,75,4796,176,15880
2025-09-13 17:09:43.421480,2642,75,4868,68,15792
2025-09-13 17:09:43.489490,2651,75,4748,76,15748
2025-09-13 17:09:43.556480,2641,75,4812,28,15832
2025-09-13 17:09:43.623589,2640,75,4748,112,15724
2025-09-13 17:09:43.687676,2655,75,4748,72,15824
2025-09-13 17:09:43.751170,2638,75,4760,84,15648
2025-09-13 17:09:43.817171,2655,75,4764,172,15824
2025-09-13 17:09:43.896986,2579,75,4676,204,15900
2025-09-13 17:09:43.961644,2655,75,4808,212,15908
2025-09-13 17:09:44.029275,2641,75,4860,104,15804
2025-09-13 17:09:44.094401,2655,75,4952,176,15796
2025-09-13 17:09:44.162008,2640,75,4888,120,15680
2025-09-13 17:09:44.225128,2639,75,4848,132,15664
2025-09-13 17:09:44.291958,2642,75,4824,104,15856
2025-09-13 17:09:44.359956,2632,75,4680,164,15772
2025-09-13 17:09:44.427438,2649,75,4692,172,15648
2025-09-13 17:09:44.496428,2642,75,4724,176,15752
2025-09-13 17:09:44.566436,2645,75,4812,12,15776
2025-09-13 17:09:44.632429,2645,75,4880,184,15712
2025-09-13 17:09:44.703867,2652,75,4936,172,15676
2025-09-13 17:09:44.768867,2651,75,4884,128,15776
2025-09-13 17:09:44.834867,2640,75,4868,156,15840
2025-09-13 17:09:44.917042,2653,75,4836,184,15776
2025-09-13 17:09:44.983004,2614,75,4872,132,15636
2025-09-13 17:09:45.049094,2641,75,4776,216,15716
2025-09-13 17:09:45.116337,2634,75,4732,200,15800
2025-09-13 17:09:45.180291,2634,75,4688,212,15728
2025-09-13 17:09:45.247776,2651,75,4796,220,15708
2025-09-13 17:09:45.312791,2640,75,4792,236,15788
2025-09-13 17:09:45.377776,2640,75,4908,208,15892
2025-09-13 17:09:45.442945,2640,75,4816,188,15716
2025-09-13 17:09:45.508003,2655,75,5080,84,15704
2025-09-13 17:09:45.578062,2649,75,4848,136,15784
2025-09-13 17:09:45.646060,2640,74,4860,128,15724
2025-09-13 17:09:45.713423,2643,74,4888,100,15804
2025-09-13 17:09:45.780610,2638,74,4888,160,15708
2025-09-13 17:09:45.844050,2644,74,4912,52,15760
2025-09-13 17:09:45.925361,2654,74,4704,84,15612
2025-09-13 17:09:45.994367,2632,74,4728,80,15760
2025-09-13 17:09:46.058463,2613,74,4840,72,15792
2025-09-13 17:09:46.122367,2645,74,4852,156,15812
2025-09-13 17:09:46.189661,2642,74,4852,92,15768
2025-09-13 17:09:46.257396,2647,74,4848,280,15652
2025-09-13 17:09:46.326301,2634,74,4980,128,15824
2025-09-13 17:09:46.396474,2632,74,5092,52,15732
2025-09-13 17:09:46.465548,2624,74,4908,248,15744
2025-09-13 17:09:46.534474,2643,74,4924,124,15644
2025-09-13 17:09:46.603967,2641,74,4920,104,15760
2025-09-13 17:09:46.675341,2643,74,4764,176,15660
2025-09-13 17:09:46.747474,2647,74,4800,65512,15780
2025-09-13 17:09:46.814683,2653,74,4736,124,15792
2025-09-13 17:09:46.895718,2651,74,4836,108,15692
2025-09-13 17:09:46.965310,2648,74,4852,204,15792
2025-09-13 17:09:47.033396,2642,74,4836,204,15728
2025-09-13 17:09:47.097584,2638,74,4920,148,15744
2025-09-13 17:09:47.161590,2641,74,4924,248,15664
2025-09-13 17:09:47.229428,2640,74,4868,96,15728
2025-09-13 17:09:47.295478,2643,74,4852,204,15768
2025-09-13 17:09:47.362194,2646,74,4888,65524,15732
2025-09-13 17:09:47.428345,2641,74,4972,28,15864
2025-09-13 17:09:47.493436,2641,74,4852,148,15784
2025-09-13 17:09:47.559636,2651,74,4748,152,15928
2025-09-13 17:09:47.625039,2639,74,4804,128,15732
2025-09-13 17:09:47.689504,2641,74,4840,88,15816
2025-09-13 17:09:47.759406,2640,74,4808,148,15752
2025-09-13 17:09:47.839028,2640,74,4900,116,15744
2025-09-13 17:09:47.903035,2644,74,4768,232,15696
2025-09-13 17:09:47.968120,2640,74,4720,176,15776
2025-09-13 17:09:48.033033,2632,74,4780,172,15628
2025-09-13 17:09:48.098033,2641,74,4828,148,15680
2025-09-13 17:09:48.168034,2648,74,4820,128,15808
2025-09-13 17:09:48.233034,2641,74,4744,20,15848
2025-09-13 17:09:48.302034,2641,74,4484,156,15760
2025-09-13 17:09:48.368787,2645,74,4808,68,15616
2025-09-13 17:09:48.433821,2639,74,4900,112,15788
2025-09-13 17:09:48.499133,2655,74,4920,188,15776
2025-09-13 17:09:48.565265,2640,74,4856,192,15876
2025-09-13 17:09:48.631991,2655,74,4740,244,15820
2025-09-13 17:09:48.697777,2641,74,4868,136,15692
2025-09-13 17:09:48.765896,2638,74,4928,144,15732
2025-09-13 17:09:48.848613,2612,74,4848,184,15628
2025-09-13 17:09:48.913629,2646,74,4924,160,15848
2025-09-13 17:09:48.983692,2652,74,4740,144,15724
2025-09-13 17:09:49.050397,2641,74,4724,76,15792
2025-09-13 17:09:49.116397,2641,74,4812,148,15692
2025-09-13 17:09:49.186512,2648,74,4884,164,15716
2025-09-13 17:09:49.251144,2633,74,4876,168,15656
2025-09-13 17:09:49.319012,2640,74,4840,124,15712
2025-09-13 17:09:49.383259,2640,74,4704,244,15776
2025-09-13 17:09:49.449237,2642,74,4772,216,15912
2025-09-13 17:09:49.514178,2638,74,4840,136,15704
2025-09-13 17:09:49.580549,2644,74,4712,284,15644
2025-09-13 17:09:49.647621,2632,74,4796,156,15732
2025-09-13 17:09:49.714609,2653,74,4876,128,15592
2025-09-13 17:09:49.778652,2631,74,4680,168,15852
2025-09-13 17:09:49.857041,2653,74,4736,32,15716
2025-09-13 17:09:49.922868,2643,74,4764,68,15844
2025-09-13 17:09:49.987845,2642,74,4704,204,15872
2025-09-13 17:09:50.051875,2648,74,4808,212,15684
2025-09-13 17:09:50.115830,2651,74,4920,256,15792
2025-09-13 17:09:50.181650,2642,74,4788,264,15920
2025-09-13 17:09:50.248737,2643,74,4824,92,15724
2025-09-13 17:09:50.313973,2639,74,4896,204,15812
2025-09-13 17:09:50.379560,2632,74,4876,56,15760
2025-09-13 17:09:50.448567,2644,74,4904,140,15688
2025-09-13 17:09:50.515589,2655,74,4688,212,15684
2025-09-13 17:09:50.580594,2612,74,4720,112,15992
2025-09-13 17:09:50.646388,2646,74,4524,180,15916
2025-09-13 17:09:50.715389,2640,74,4404,180,15760
2025-09-13 17:09:50.782388,2642,74,4832,152,15744
2025-09-13 17:09:50.862389,2642,74,5008,228,15904
2025-09-13 17:09:50.926979,2643,74,4780,136,15816
2025-09-13 17:09:50.992988,2653,74,4784,196,15720
2025-09-13 17:09:51.058741,2643,74,4836,124,15776
2025-09-13 17:09:51.123826,2637,74,4656,108,15700
2025-09-13 17:09:51.188040,2640,74,4752,128,15676
2025-09-13 17:09:51.255827,2642,74,4752,156,15836
2025-09-13 17:09:51.323184,2655,74,4636,156,15796
2025-09-13 17:09:51.392164,2646,74,4640,100,15696
2025-09-13 17:09:51.459891,2640,74,4728,116,15844
2025-09-13 17:09:51.528519,2655,74,4908,216,15772
2025-09-13 17:09:51.597552,2647,74,4876,148,15812
2025-09-13 17:09:51.664557,2640,74,4864,188,15820
2025-09-13 17:09:51.735925,2641,74,4844,208,15900
2025-09-13 17:09:51.817381,2648,74,4812,140,15712
2025-09-13 17:09:51.881672,2652,74,4772,256,15616
2025-09-13 17:09:51.948332,2640,74,4752,156,15672
2025-09-13 17:09:52.017671,2643,74,4804,152,15764
2025-09-13 17:09:52.086784,2645,74,4840,92,15796
2025-09-13 17:09:52.155979,2641,74,4828,160,15660
2025-09-13 17:09:52.221650,2641,74,4676,96,15804
2025-09-13 17:09:52.286636,2642,74,4536,272,15848
2025-09-13 17:09:52.352646,2640,74,4680,160,15664
2025-09-13 17:09:52.418728,2632,74,4864,244,15712
2025-09-13 17:09:52.486638,2647,74,4864,116,15820
2025-09-13 17:09:52.552637,2645,74,4780,228,15460
2025-09-13 17:09:52.618637,2643,74,4748,144,15704
2025-09-13 17:09:52.683636,2651,74,4892,132,15884
2025-09-13 17:09:52.748715,2645,74,4944,12,15780
2025-09-13 17:09:52.832231,2654,74,4804,200,15628
2025-09-13 17:09:52.898798,2645,74,4684,196,15760
2025-09-13 17:09:52.967139,2627,74,4684,124,15720
2025-09-13 17:09:53.034978,2642,74,4684,112,15912
2025-09-13 17:09:53.105057,2640,74,4760,96,15868
2025-09-13 17:09:53.169724,2655,74,4756,140,15712
2025-09-13 17:09:53.236734,2648,74,4864,124,15856
2025-09-13 17:09:53.300911,2637,74,4672,220,15740
2025-09-13 17:09:53.369426,2637,74,4848,240,15736
2025-09-13 17:09:53.438678,2643,74,4952,172,15848
2025-09-13 17:09:53.504679,2648,74,4776,144,15752
2025-09-13 17:09:53.572846,2643,74,4728,204,15764
2025-09-13 17:09:53.642767,2639,74,4728,124,15700
2025-09-13 17:09:53.708194,2632,74,4692,148,15820
2025-09-13 17:09:53.774949,2639,74,4768,172,15640
2025-09-13 17:09:53.857356,2651,74,4636,132,15884
2025-09-13 17:09:53.923776,2640,74,4764,140,15848
2025-09-13 17:09:53.996924,2645,74,4696,216,15724
2025-09-13 17:09:54.064001,2632,74,4764,316,15716
2025-09-13 17:09:54.136146,2640,74,4804,108,15780
2025-09-13 17:09:54.205118,2645,74,4908,248,15784
2025-09-13 17:09:54.272203,2655,74,4696,120,15720
2025-09-13 17:09:54.342213,2641,74,4844,256,15832
2025-09-13 17:09:54.412473,2625,74,4892,132,15824
2025-09-13 17:09:54.484661,2655,74,4812,156,15556
2025-09-13 17:09:54.555681,2641,74,4712,68,15828
2025-09-13 17:09:54.626682,2640,74,4704,65492,15836
2025-09-13 17:09:54.694777,2619,74,4852,52,15764
2025-09-13 17:09:54.767002,2633,74,4772,240,15760
2025-09-13 17:09:54.844093,2636,74,4740,140,15696
2025-09-13 17:09:54.914815,2652,74,4836,172,15752
2025-09-13 17:09:54.981517,2636,74,4752,188,15788
2025-09-13 17:09:55.042922,2644,74,4656,184,15680
2025-09-13 17:09:55.108941,2655,74,5084,212,15804
2025-09-13 17:09:55.174929,2646,74,4852,152,15752
2025-09-13 17:09:55.239009,2647,74,4784,100,15800
2025-09-13 17:09:55.305098,2640,74,4724,124,15900
2025-09-13 17:09:55.371393,2640,74,4728,172,15744
2025-09-13 17:09:55.438404,2640,74,4624,64,15736
2025-09-13 17:09:55.505003,2647,74,4856,60,15744
2025-09-13 17:09:55.572067,2638,74,4984,144,15668
2025-09-13 17:09:55.636054,2644,74,4876,188,15688
2025-09-13 17:09:55.702869,2642,74,4716,232,15784
2025-09-13 17:09:55.783868,2642,74,4792,164,15780
2025-09-13 17:09:55.851220,2641,72,4964,136,15748
2025-09-13 17:09:55.916608,2638,72,4876,40,15644
2025-09-13 17:09:55.980926,2644,72,4944,128,15696
2025-09-13 17:09:56.049639,2647,72,4852,92,15888
2025-09-13 17:09:56.116665,2640,72,4852,104,15788
2025-09-13 17:09:56.182633,2632,72,4748,120,15712
2025-09-13 17:09:56.250156,2644,72,4720,24,15712
2025-09-13 17:09:56.315306,2642,72,4720,104,15752
2025-09-13 17:09:56.380739,2642,72,4676,212,15704
2025-09-13 17:09:56.447015,2651,72,4816,76,15624
2025-09-13 17:09:56.513522,2644,72,4980,136,15732
2025-09-13 17:09:56.580515,2655,72,4916,308,15852
2025-09-13 17:09:56.647563,2614,72,4900,140,15788
2025-09-13 17:09:56.713880,2640,72,4952,16,15680
2025-09-13 17:09:56.793750,2640,72,5004,212,15812
2025-09-13 17:09:56.858839,2639,72,4952,108,15624
2025-09-13 17:09:56.923573,2652,72,4772,104,15748
2025-09-13 17:09:56.988836,2640,72,4756,144,15820
2025-09-13 17:09:57.054889,2637,72,4788,60,15736
2025-09-13 17:09:57.119945,2642,72,4768,144,15820
2025-09-13 17:09:57.186332,2639,72,4780,240,15920
2025-09-13 17:09:57.252256,2643,72,4800,168,15760
2025-09-13 17:09:57.317349,2642,72,4904,144,15700
2025-09-13 17:09:57.382995,2632,72,4812,152,15684
2025-09-13 17:09:57.448686,2644,72,4820,52,15696
2025-09-13 17:09:57.514608,2640,72,4920,196,15664
2025-09-13 17:09:57.582140,2653,72,4844,196,15688
2025-09-13 17:09:57.648539,2650,72,4792,188,15840
2025-09-13 17:09:57.713544,2638,72,4736,116,15640
2025-09-13 17:09:57.792607,2640,72,4716,84,15740
2025-09-13 17:09:57.857691,2640,72,4832,56,15848
2025-09-13 17:09:57.922029,2640,72,4692,140,15728
2025-09-13 17:09:57.987023,2641,72,4756,148,15760
2025-09-13 17:09:58.057173,2641,72,4672,300,15820
2025-09-13 17:09:58.124176,2632,72,4892,80,15660
2025-09-13 17:09:58.192172,2640,72,4876,64,15636
2025-09-13 17:09:58.261624,2640,72,4916,196,15648
2025-09-13 17:09:58.328700,2632,72,4876,156,15808
2025-09-13 17:09:58.399351,2638,72,4720,148,15788
2025-09-13 17:09:58.469404,2642,72,4844,52,15684
2025-09-13 17:09:58.539450,2641,72,4760,88,15784
2025-09-13 17:09:58.608455,2620,72,4636,104,15720
2025-09-13 17:09:58.694456,2636,72,4664,180,15760
2025-09-13 17:09:58.762447,2639,72,4716,180,15752
2025-09-13 17:09:58.831963,2636,72,4892,232,15808
2025-09-13 17:09:58.899472,2636,72,4904,256,15868
2025-09-13 17:09:58.968430,2647,72,4740,128,15756
2025-09-13 17:09:59.038352,2639,72,4840,56,15852
2025-09-13 17:09:59.107439,2624,72,4924,184,15780
2025-09-13 17:09:59.176992,2641,72,4872,32,15776
2025-09-13 17:09:59.245264,2641,72,4828,140,15732
2025-09-13 17:09:59.314539,2641,72,4692,108,15868
2025-09-13 17:09:59.386482,2651,72,4676,120,15852
2025-09-13 17:09:59.456488,2643,72,4684,212,15752
2025-09-13 17:09:59.527488,2641,72,4764,100,15868
2025-09-13 17:09:59.598081,2642,72,4680,212,15696
2025-09-13 17:09:59.683701,2632,72,4840,56,15632
2025-09-13 17:09:59.752784,2640,72,4808,124,15740
2025-09-13 17:09:59.821708,2646,72,4840,192,15836
2025-09-13 17:09:59.892781,2643,72,4884,176,15828
2025-09-13 17:09:59.960854,2610,72,4744,128,15752
2025-09-13 17:10:00.032839,2641,72,4932,180,15700
2025-09-13 17:10:00.102841,2624,72,4828,96,15828
2025-09-13 17:10:00.171817,2641,72,4716,65480,15644
2025-09-13 17:10:00.235446,2638,72,4752,196,15700
2025-09-13 17:10:00.304834,2645,72,4872,104,15816
2025-09-13 17:10:00.369805,2655,72,4792,136,15776
2025-09-13 17:10:00.433808,2634,72,4748,200,15692
2025-09-13 17:10:00.501806,2647,72,4656,152,15856
2025-09-13 17:10:00.570513,2647,72,4812,132,15744
2025-09-13 17:10:00.651686,2577,72,4896,144,15816
2025-09-13 17:10:00.715635,2632,72,5008,156,15680
2025-09-13 17:10:00.779799,2641,72,4776,176,15772
2025-09-13 17:10:00.846063,2655,72,4844,208,15812
2025-09-13 17:10:00.910910,2641,72,4776,72,15832
2025-09-13 17:10:00.975494,2655,72,4780,16,15732
2025-09-13 17:10:01.042790,2639,72,4816,92,15860
2025-09-13 17:10:01.108913,2643,72,4740,256,15796
2025-09-13 17:10:01.173890,2624,72,4768,200,15812
2025-09-13 17:10:01.239210,2632,72,4876,172,15704
2025-09-13 17:10:01.308070,2640,72,4948,156,15876
2025-09-13 17:10:01.377054,2641,72,4832,56,15708
2025-09-13 17:10:01.444995,2655,72,4812,152,15860
2025-09-13 17:10:01.509666,2642,72,4860,148,15632
2025-09-13 17:10:01.589419,2632,72,4960,124,15768
2025-09-13 17:10:01.653419,2633,72,4860,92,15576
2025-09-13 17:10:01.717763,2642,72,4812,108,15804
2025-09-13 17:10:01.782772,2640,72,4632,204,15836
2025-09-13 17:10:01.850276,2643,72,4708,172,15736
2025-09-13 17:10:01.915366,2633,72,4984,332,15852
2025-09-13 17:10:01.982308,2637,72,4924,160,15728
2025-09-13 17:10:02.047636,2643,72,4908,68,15636
2025-09-13 17:10:02.114502,2632,72,4808,100,15804
2025-09-13 17:10:02.176507,2643,72,4844,148,15564
2025-09-13 17:10:02.241601,2651,72,4724,128,15808
2025-09-13 17:10:02.308474,2648,72,4964,128,15676
2025-09-13 17:10:02.374562,2646,72,4876,64,15712
2025-09-13 17:10:02.439480,2632,72,4804,16,15756
2025-09-13 17:10:02.505483,2638,72,4724,148,15696
2025-09-13 17:10:02.584897,2639,72,4840,120,15860
2025-09-13 17:10:02.649634,2655,72,4876,80,15652
2025-09-13 17:10:02.713639,2651,72,4808,248,15704
2025-09-13 17:10:02.779025,2608,72,4864,204,15820
2025-09-13 17:10:02.843827,2641,72,4756,172,15884
2025-09-13 17:10:02.909957,2624,72,4960,180,15776
2025-09-13 17:10:02.973638,2640,72,4904,152,15784
2025-09-13 17:10:03.038527,2638,72,4896,172,15688
2025-09-13 17:10:03.103533,2641,72,4764,240,15696
2025-09-13 17:10:03.168532,2643,72,4684,92,15712
2025-09-13 17:10:03.234308,2641,72,4748,40,15668
2025-09-13 17:10:03.301490,2640,72,4752,144,15676
2025-09-13 17:10:03.366495,2641,72,4768,100,15800
2025-09-13 17:10:03.433465,2641,72,4804,172,15812
2025-09-13 17:10:03.498461,2636,72,4876,240,15852
2025-09-13 17:10:03.581642,2636,72,4744,188,15708
2025-09-13 17:10:03.649631,2655,72,4752,208,15692
2025-09-13 17:10:03.719019,2653,72,4944,176,15748
2025-09-13 17:10:03.788018,2641,72,4920,60,15696
2025-09-13 17:10:03.857639,2642,72,4828,212,15768
2025-09-13 17:10:03.924822,2634,72,4724,180,15732
2025-09-13 17:10:03.993847,2641,72,4748,84,15664
2025-09-13 17:10:04.064526,2641,72,4688,20,15768
2025-09-13 17:10:04.137179,2640,72,4800,156,15808
2025-09-13 17:10:04.208061,2647,72,4844,120,15688
2025-09-13 17:10:04.278762,2638,72,4840,244,15688
2025-09-13 17:10:04.347045,2655,72,4668,232,15848
2025-09-13 17:10:04.416045,2640,72,4864,156,15584
2025-09-13 17:10:04.499195,2639,72,4952,160,15736
2025-09-13 17:10:04.568884,2645,72,4984,68,15732
2025-09-13 17:10:04.637985,2641,72,4964,112,15692
2025-09-13 17:10:04.709203,2647,72,4988,140,15824
2025-09-13 17:10:04.779835,2655,72,4844,8,15796
2025-09-13 17:10:04.850858,2641,72,4696,104,15828
2025-09-13 17:10:04.920374,2640,72,4644,152,15752
2025-09-13 17:10:04.989375,2646,72,4796,280,15920
2025-09-13 17:10:05.054418,2642,72,4864,204,15780
2025-09-13 17:10:05.121380,2634,72,4840,280,15664
2025-09-13 17:10:05.186864,2624,72,4764,140,15768
2025-09-13 17:10:05.254871,2638,72,4916,148,15720
2025-09-13 17:10:05.320276,2644,72,4952,100,15708
2025-09-13 17:10:05.389278,2641,72,4920,184,15676
2025-09-13 17:10:05.471278,2642,72,4964,116,15736
2025-09-13 17:10:05.537281,2638,72,4884,72,15664
2025-09-13 17:10:05.599692,2638,72,4836,92,15776
2025-09-13 17:10:05.665072,2636,72,4740,76,15728
2025-09-13 17:10:05.733190,2651,72,4764,188,15668
2025-09-13 17:10:05.798219,2646,72,4784,216,15640
2025-09-13 17:10:05.863138,2640,72,4924,216,15644
2025-09-13 17:10:05.929647,2640,72,4896,212,15796
2025-09-13 17:10:05.995670,2642,72,4940,140,15732
2025-09-13 17:10:06.063649,2655,72,4932,120,15816
2025-09-13 17:10:06.128854,2612,76,4944,100,15692
2025-09-13 17:10:06.192860,2634,76,5004,224,15596
2025-09-13 17:10:06.258536,2624,76,4872,128,15728
2025-09-13 17:10:06.328055,2642,76,4684,148,15800
2025-09-13 17:10:06.393967,2642,76,4804,28,15736
2025-09-13 17:10:06.471591,2643,76,4768,188,15744
2025-09-13 17:10:06.537525,2635,76,4804,172,15860
2025-09-13 17:10:06.605083,2642,76,4796,200,15788
2025-09-13 17:10:06.668090,2639,76,4824,268,15680
2025-09-13 17:10:06.733088,2634,76,4808,268,15672
2025-09-13 17:10:06.798503,2640,76,4888,148,15736
2025-09-13 17:10:06.863323,2642,76,4816,180,15764
2025-09-13 17:10:06.930305,2643,76,4928,140,15940
2025-09-13 17:10:06.995818,2642,76,5016,84,15772
2025-09-13 17:10:07.061914,2646,76,4804,168,15876
2025-09-13 17:10:07.131176,2616,76,4708,88,15816
2025-09-13 17:10:07.196183,2632,76,4700,120,15804
2025-09-13 17:10:07.261572,2642,76,4776,72,15728
2025-09-13 17:10:07.331534,2641,76,4792,204,15752
2025-09-13 17:10:07.411582,2646,76,4816,204,15736
2025-09-13 17:10:07.477492,2654,76,4756,188,15756
2025-09-13 17:10:07.544506,2639,76,4868,200,15620
2025-09-13 17:10:07.610668,2655,76,4852,148,15672
2025-09-13 17:10:07.675697,2656,76,4988,180,15840
2025-09-13 17:10:07.740702,2647,76,4792,108,15728
2025-09-13 17:10:07.808819,2624,76,4652,168,15720
2025-09-13 17:10:07.877161,2641,76,4780,20,15812
2025-09-13 17:10:07.942915,2642,76,4780,132,15724
2025-09-13 17:10:08.008735,2653,76,4912,108,15752
2025-09-13 17:10:08.074735,2645,76,4924,80,15744
2025-09-13 17:10:08.139736,2640,76,4904,208,15860
2025-09-13 17:10:08.206178,2638,76,4868,144,15748
2025-09-13 17:10:08.274737,2647,76,4836,196,15684
2025-09-13 17:10:08.338742,2632,76,4848,128,15652
2025-09-13 17:10:08.419353,2655,76,4916,180,15992
2025-09-13 17:10:08.483287,2647,76,4916,92,15904
2025-09-13 17:10:08.548459,2640,76,4844,144,15752
2025-09-13 17:10:08.612551,2637,76,4804,148,15808
2025-09-13 17:10:08.677724,2638,76,4880,116,15716
2025-09-13 17:10:08.743723,2639,76,4872,144,15792
2025-09-13 17:10:08.808612,2654,76,4768,152,15784
2025-09-13 17:10:08.874826,2643,76,4868,124,15652
2025-09-13 17:10:08.940855,2639,76,4784,208,15828
2025-09-13 17:10:09.008477,2640,76,4844,248,15700
2025-09-13 17:10:09.074483,2630,76,4880,104,15708
2025-09-13 17:10:09.140482,2632,76,5020,80,15632
2025-09-13 17:10:09.208170,2655,76,4856,112,15788
2025-09-13 17:10:09.274254,2640,76,4872,180,15700
2025-09-13 17:10:09.341175,2646,76,4744,232,15880
2025-09-13 17:10:09.422174,2612,76,4820,168,15756
2025-09-13 17:10:09.489798,2641,76,4680,76,15752
2025-09-13 17:10:09.556898,2639,76,4804,84,15616
2025-09-13 17:10:09.622805,2645,76,4836,192,15748
2025-09-13 17:10:09.688729,2651,76,4716,192,15760
2025-09-13 17:10:09.774247,2644,76,4944,160,15836
2025-09-13 17:10:09.840248,2632,76,4864,88,15680
2025-09-13 17:10:09.905248,2640,76,4888,120,15764
2025-09-13 17:10:09.972324,2651,76,5000,180,15764
2025-09-13 17:10:10.036839,2641,76,4964,168,15660
2025-09-13 17:10:10.102884,2642,76,4884,184,15712
2025-09-13 17:10:10.170838,2648,76,4780,76,15700
2025-09-13 17:10:10.240421,2651,76,4696,108,15768
2025-09-13 17:10:10.306422,2641,76,4628,168,15836
2025-09-13 17:10:10.372420,2641,76,4664,176,15744
2025-09-13 17:10:10.453901,2636,76,4784,228,15864
2025-09-13 17:10:10.522901,2655,76,4816,232,15744
2025-09-13 17:10:10.588980,2642,76,4792,196,15644
2025-09-13 17:10:10.654901,2643,76,4940,172,15708
2025-09-13 17:10:10.719058,2636,76,4844,168,15852
2025-09-13 17:10:10.784292,2647,76,4888,76,15708
2025-09-13 17:10:10.850957,2641,76,4928,80,15672
2025-09-13 17:10:10.916370,2644,76,4796,120,15708
2025-09-13 17:10:10.983414,2652,76,4768,132,15740
2025-09-13 17:10:11.048371,2641,76,4752,100,15812
2025-09-13 17:10:11.114041,2645,76,4624,176,15832
2025-09-13 17:10:11.179115,2649,76,4796,56,15752
2025-09-13 17:10:11.246127,2638,76,4740,180,15724
2025-09-13 17:10:11.314503,2645,76,4800,128,15828
2025-09-13 17:10:11.396482,2642,76,4780,224,15824
2025-09-13 17:10:11.463500,2640,76,4976,276,15696
2025-09-13 17:10:11.529039,2643,76,5032,100,15676
2025-09-13 17:10:11.592888,2632,76,5016,180,15824
2025-09-13 17:10:11.657512,2645,76,4784,164,15584
2025-09-13 17:10:11.722568,2638,76,4768,120,15652
2025-09-13 17:10:11.788200,2639,76,4848,84,15820
2025-09-13 17:10:11.857673,2640,76,4668,132,15736
2025-09-13 17:10:11.927186,2642,76,4728,120,15820
2025-09-13 17:10:11.997185,2652,76,4808,176,15796
2025-09-13 17:10:12.067186,2655,76,4792,204,15776
2025-09-13 17:10:12.136801,2653,76,4844,180,15752
2025-09-13 17:10:12.205970,2639,76,4968,248,15780
2025-09-13 17:10:12.276016,2641,76,4864,172,15744
2025-09-13 17:10:12.360976,2653,76,4868,260,15720
2025-09-13 17:10:12.429880,2647,76,4784,56,15684
2025-09-13 17:10:12.500605,2647,76,4832,220,15752
2025-09-13 17:10:12.572104,2641,76,4832,148,15608
2025-09-13 17:10:12.641065,2642,76,4760,176,15716
2025-09-13 17:10:12.712151,2641,76,4688,156,15728
2025-09-13 17:10:12.782527,2645,76,4812,132,15816
2025-09-13 17:10:12.853520,2653,76,4860,72,15720
2025-09-13 17:10:12.921564,2640,76,4904,152,15784
2025-09-13 17:10:12.991520,2632,76,4900,140,15760
2025-09-13 17:10:13.058806,2632,76,4776,148,15728
2025-09-13 17:10:13.126782,2643,76,4900,108,15864
2025-09-13 17:10:13.194812,2655,76,4852,156,15764
2025-09-13 17:10:13.263804,2640,76,5012,68,15728
2025-09-13 17:10:13.347420,2655,76,4916,208,15708
2025-09-13 17:10:13.415309,2633,76,4804,76,15828
2025-09-13 17:10:13.484326,2655,76,4756,112,15744
2025-09-13 17:10:13.553180,2642,76,4844,108,15748
2025-09-13 17:10:13.626020,2624,76,4864,140,15748
2025-09-13 17:10:13.694287,2642,76,4816,184,15744
2025-09-13 17:10:13.768234,2651,76,4940,196,15808
2025-09-13 17:10:13.834926,2641,76,4928,212,15660
2025-09-13 17:10:13.905412,2624,76,4952,76,15732
2025-09-13 17:10:13.976421,2641,76,5080,164,15728
2025-09-13 17:10:14.044519,2652,76,5028,140,15768
2025-09-13 17:10:14.112428,2649,76,4880,156,15580
2025-09-13 17:10:14.181684,2642,76,4824,116,15740
2025-09-13 17:10:14.263627,2639,76,4808,56,15828
2025-09-13 17:10:14.331984,2642,76,4728,84,15776
2025-09-13 17:10:14.400878,2647,76,4828,92,15800
2025-09-13 17:10:14.471171,2651,76,4840,92,15744
2025-09-13 17:10:14.540972,2655,76,4860,120,15756
2025-09-13 17:10:14.611710,2634,76,5008,144,15708
2025-09-13 17:10:14.681347,2654,76,4976,84,15744
2025-09-13 17:10:14.752108,2633,76,4884,176,15784
2025-09-13 17:10:14.821138,2636,76,4820,188,15732
2025-09-13 17:10:14.889156,2641,76,4956,232,15792
2025-09-13 17:10:14.956448,2651,76,4896,68,15768
2025-09-13 17:10:15.027480,2654,76,4756,132,15792
2025-09-13 17:10:15.095399,2641,76,4664,68,15780
2025-09-13 17:10:15.179420,2640,76,4768,116,15880
2025-09-13 17:10:15.249098,2632,76,4948,200,15624
2025-09-13 17:10:15.320080,2633,76,4816,180,15832
2025-09-13 17:10:15.396696,2644,76,4812,284,15804
2025-09-13 17:10:15.466861,2642,76,4984,108,15680
2025-09-13 17:10:15.538078,2642,76,5052,112,15720
2025-09-13 17:10:15.610216,2637,76,4912,76,15704
2025-09-13 17:10:15.682139,2635,76,4912,212,15732
2025-09-13 17:10:15.752139,2654,76,4880,156,15632
2025-09-13 17:10:15.821138,2640,76,4900,88,15828
2025-09-13 17:10:15.891585,2641,76,4776,132,15640
2025-09-13 17:10:15.959641,2651,76,4776,112,15816
2025-09-13 17:10:16.032063,2648,76,4836,216,15640
2025-09-13 17:10:16.115146,2624,76,4960,140,15844
2025-09-13 17:10:16.183083,2647,76,4740,252,15764
2025-09-13 17:10:16.251524,2640,76,4796,228,15744
2025-09-13 17:10:16.321509,2662,76,4932,96,15700
2025-09-13 17:10:16.390281,2654,76,5008,196,15732
2025-09-13 17:10:16.458323,2641,71,4968,140,15764
2025-09-13 17:10:16.529821,2645,71,4912,144,15756
2025-09-13 17:10:16.599489,2655,71,4868,80,15868
2025-09-13 17:10:16.668343,2642,71,4780,148,15784
2025-09-13 17:10:16.736637,2643,71,4688,192,15784
2025-09-13 17:10:16.805875,2645,71,4744,196,15776
2025-09-13 17:10:16.873880,2644,71,4856,152,15796
2025-09-13 17:10:16.943947,2641,71,4800,156,15704
2025-09-13 17:10:17.012450,2641,71,4856,212,15716
2025-09-13 17:10:17.095415,2636,71,4900,144,15816
2025-09-13 17:10:17.167421,2632,71,4864,184,15836
2025-09-13 17:10:17.236163,2653,71,4828,120,15780
2025-09-13 17:10:17.308095,2640,71,4908,152,15720
2025-09-13 17:10:17.376099,2641,71,5012,112,15812
2025-09-13 17:10:17.447100,2633,71,4852,216,15732
2025-09-13 17:10:17.517189,2648,71,4700,96,15860
2025-09-13 17:10:17.586321,2641,71,4720,144,15828
2025-09-13 17:10:17.656432,2636,71,4716,108,15752
2025-09-13 17:10:17.725212,2638,71,4752,164,15660
2025-09-13 17:10:17.793189,2653,71,4848,56,15792
2025-09-13 17:10:17.863387,2638,71,4904,136,15824
2025-09-13 17:10:17.933998,2646,71,4828,212,15728
2025-09-13 17:10:18.018973,2639,71,4916,84,15640
2025-09-13 17:10:18.086972,2641,71,4860,140,15756
2025-09-13 17:10:18.155888,2592,71,5000,204,15716
2025-09-13 17:10:18.224974,2637,71,4864,88,15840
2025-09-13 17:10:18.296889,2642,71,4920,116,15664
2025-09-13 17:10:18.364896,2631,71,4892,112,15800
2025-09-13 17:10:18.438157,2632,71,4772,32,15692
2025-09-13 17:10:18.507064,2639,71,4868,172,15712
2025-09-13 17:10:18.576087,2640,71,4792,104,15704
2025-09-13 17:10:18.642683,2651,71,4812,256,15800
2025-09-13 17:10:18.711767,2633,71,4748,176,15916
2025-09-13 17:10:18.781282,2650,71,4876,124,15816
2025-09-13 17:10:18.851433,2641,71,4904,156,15860
2025-09-13 17:10:18.934434,2632,71,4844,176,15736
2025-09-13 17:10:19.006525,2655,71,4900,184,15792
2025-09-13 17:10:19.076995,2636,71,4752,164,15748
2025-09-13 17:10:19.147765,2642,71,4748,192,15780
2025-09-13 17:10:19.217348,2644,71,4792,48,15820
2025-09-13 17:10:19.289495,2632,71,4880,148,15824
2025-09-13 17:10:19.361202,2655,71,4772,164,15804
2025-09-13 17:10:19.431215,2640,71,4856,268,15788
2025-09-13 17:10:19.499874,2648,71,4848,184,15708
2025-09-13 17:10:19.570877,2629,71,4804,284,15760
2025-09-13 17:10:19.639462,2640,71,4804,140,15784
2025-09-13 17:10:19.708469,2641,71,4792,184,15752
2025-09-13 17:10:19.778472,2639,71,4896,184,15656
2025-09-13 17:10:19.846467,2638,71,4796,152,15544
2025-09-13 17:10:19.931976,2645,71,4760,168,15716
2025-09-13 17:10:19.999977,2612,71,4828,136,15736
2025-09-13 17:10:20.068978,2632,71,4720,88,15732
2025-09-13 17:10:20.136977,2651,71,4860,132,15696
2025-09-13 17:10:20.208977,2647,71,4760,192,15756
2025-09-13 17:10:20.276786,2624,71,4788,204,15808
2025-09-13 17:10:20.346034,2638,71,4792,164,15728
2025-09-13 17:10:20.415291,2662,71,4852,96,15768
2025-09-13 17:10:20.485328,2653,71,4872,136,15680
2025-09-13 17:10:20.556155,2632,71,4896,120,15732
2025-09-13 17:10:20.626767,2651,71,4748,156,15820
2025-09-13 17:10:20.695930,2641,71,4760,108,15780
2025-09-13 17:10:20.767520,2640,71,4784,52,15680
2025-09-13 17:10:20.851243,2641,71,4640,128,15676
2025-09-13 17:10:20.919762,2642,71,4776,172,15848
2025-09-13 17:10:20.992988,2640,71,4748,200,15784
2025-09-13 17:10:21.060894,2647,71,4772,208,15908
2025-09-13 17:10:21.131366,2643,71,4848,228,15788
2025-09-13 17:10:21.199599,2642,71,4916,148,15740
2025-09-13 17:10:21.269144,2641,71,4808,164,15800
2025-09-13 17:10:21.342970,2648,71,4868,176,15744
2025-09-13 17:10:21.412877,2640,71,4828,228,15700
2025-09-13 17:10:21.484878,2641,71,4848,176,15744
2025-09-13 17:10:21.552878,2639,71,4864,140,15804
2025-09-13 17:10:21.624539,2646,71,4824,100,15744
2025-09-13 17:10:21.694403,2644,71,4704,100,15672
2025-09-13 17:10:21.776729,2647,71,4720,84,15720
2025-09-13 17:10:21.847494,2636,71,4904,124,15720
2025-09-13 17:10:21.914764,2643,71,4816,120,15732
2025-09-13 17:10:21.984765,2640,71,4824,220,15860
2025-09-13 17:10:22.052979,2616,71,4856,176,15760
2025-09-13 17:10:22.123981,2637,71,4956,188,15760
2025-09-13 17:10:22.193491,2644,71,4972,140,15624
2025-09-13 17:10:22.265133,2652,71,4868,264,15772
2025-09-13 17:10:22.333403,2642,71,4848,72,15776
2025-09-13 17:10:22.401457,2641,71,4724,40,15676
2025-09-13 17:10:22.471667,2636,71,4856,84,15780
2025-09-13 17:10:22.547000,2641,71,4832,64,15724
2025-09-13 17:10:22.615099,2633,71,4848,196,15796
2025-09-13 17:10:22.699186,2653,71,4808,232,15724
2025-09-13 17:10:22.767189,2647,71,4812,184,15852
2025-09-13 17:10:22.836102,2641,71,4936,16,15704
2025-09-13 17:10:22.904676,2638,71,4976,200,15720
2025-09-13 17:10:22.973690,2642,71,4900,216,15740
2025-09-13 17:10:23.046682,2651,71,4876,260,15812
2025-09-13 17:10:23.114598,2632,71,4960,92,15632
2025-09-13 17:10:23.182605,2640,71,4840,176,15780
2025-09-13 17:10:23.252225,2640,71,4836,112,15744
2025-09-13 17:10:23.321470,2633,71,4740,120,15840
2025-09-13 17:10:23.389656,2655,71,4644,108,15828
2025-09-13 17:10:23.461554,2640,71,4896,180,15856
2025-09-13 17:10:23.531404,2638,71,4752,224,15872
2025-09-13 17:10:23.601842,2642,71,4768,220,15816
2025-09-13 17:10:23.687691,2640,71,4884,88,15712
2025-09-13 17:10:23.757794,2647,71,4884,92,15776
2025-09-13 17:10:23.829800,2643,71,4828,88,15716
2025-09-13 17:10:23.900799,2643,71,4944,204,15768
2025-09-13 17:10:23.969799,2637,71,4884,148,15860
2025-09-13 17:10:24.039019,2642,71,4720,32,15648
2025-09-13 17:10:24.115540,2634,71,4636,120,15720
2025-09-13 17:10:24.188623,2641,71,4796,180,15712
2025-09-13 17:10:24.256815,2638,71,4748,156,15676
2025-09-13 17:10:24.325731,2639,71,4844,120,15872
2025-09-13 17:10:24.395731,2652,71,4880,192,15760
2025-09-13 17:10:24.465931,2613,71,4796,88,15788
2025-09-13 17:10:24.536924,2648,71,4952,84,15736
2025-09-13 17:10:24.622748,2644,71,4848,140,15772
2025-09-13 17:10:24.692297,2639,71,4852,232,15756
2025-09-13 17:10:24.761380,2637,71,4812,60,15728
2025-09-13 17:10:24.833297,2653,71,4848,92,15592
2025-09-13 17:10:24.901675,2640,71,4816,72,15968
2025-09-13 17:10:24.969078,2645,71,4756,228,15688
2025-09-13 17:10:25.035545,2651,71,4732,120,15748
2025-09-13 17:10:25.101550,2643,71,4808,184,15844
2025-09-13 17:10:25.165550,2642,71,4816,240,15804
2025-09-13 17:10:25.231550,2644,71,4760,144,15832
2025-09-13 17:10:25.300129,2640,71,4900,124,15680
2025-09-13 17:10:25.368813,2651,71,4908,156,15632
2025-09-13 17:10:25.437813,2641,71,4864,224,15660
2025-09-13 17:10:25.508813,2636,71,4864,160,15752
2025-09-13 17:10:25.594812,2641,71,4884,104,15804
2025-09-13 17:10:25.659812,2642,71,4852,92,15700
2025-09-13 17:10:25.726243,2640,71,4616,48,15800
2025-09-13 17:10:25.795763,2642,71,4796,240,15904
2025-09-13 17:10:25.867743,2644,71,4708,164,15880
2025-09-13 17:10:25.933046,2636,71,4752,160,15872
2025-09-13 17:10:25.998839,2642,71,4916,220,15716
2025-09-13 17:10:26.065430,2642,71,4872,120,15688
2025-09-13 17:10:26.132066,2640,71,4916,148,15800
2025-09-13 17:10:26.198409,2652,71,4828,88,15720
2025-09-13 17:10:26.266931,2632,71,4844,152,15732
2025-09-13 17:10:26.331611,2608,71,4792,228,15692
2025-09-13 17:10:26.397603,2640,71,4792,292,15744
2025-09-13 17:10:26.464299,2624,71,4800,192,15728
2025-09-13 17:10:26.532300,2647,71,4808,108,15780
2025-09-13 17:10:26.615980,2641,71,4884,124,15840
2025-09-13 17:10:26.683067,2641,71,4736,192,15848
2025-09-13 17:10:26.750980,2640,71,4752,276,15848
2025-09-13 17:10:26.816529,2640,71,4808,188,15828
2025-09-13 17:10:26.881782,2653,71,4788,156,15980
2025-09-13 17:10:26.948140,2641,71,4924,132,15620
2025-09-13 17:10:27.013308,2624,71,4944,92,15800
2025-09-13 17:10:27.081393,2639,74,4796,164,15804
2025-09-13 17:10:27.147651,2633,74,4732,148,15788
2025-09-13 17:10:27.212657,2654,74,4828,136,15636
2025-09-13 17:10:27.289300,2641,74,4636,96,15816
2025-09-13 17:10:27.355331,2640,74,4804,100,15800
2025-09-13 17:10:27.427748,2640,74,4800,232,15780
2025-09-13 17:10:27.496334,2653,74,4844,216,15784
2025-09-13 17:10:27.561334,2642,74,4912,72,15724
2025-09-13 17:10:27.643826,2641,74,4908,52,15764
2025-09-13 17:10:27.711012,2640,74,4832,188,15800
2025-09-13 17:10:27.777011,2641,74,4876,176,15868
2025-09-13 17:10:27.842303,2637,74,4904,80,15856
2025-09-13 17:10:27.910203,2655,74,4852,60,15680
2025-09-13 17:10:27.975208,2651,74,4752,120,15732
2025-09-13 17:10:28.041135,2647,74,4740,92,15664
2025-09-13 17:10:28.107286,2619,74,4776,112,15748
2025-09-13 17:10:28.172531,2640,74,4816,128,15808
2025-09-13 17:10:28.238444,2642,74,4816,140,15716
2025-09-13 17:10:28.310437,2651,74,4864,216,15804
2025-09-13 17:10:28.374430,2640,74,4776,196,15724
2025-09-13 17:10:28.442432,2634,74,4856,188,15728
2025-09-13 17:10:28.511079,2632,74,4884,132,15780
2025-09-13 17:10:28.578960,2640,74,4968,104,15744
2025-09-13 17:10:28.658472,2612,74,4820,136,15756
2025-09-13 17:10:28.725557,2639,74,4916,172,15768
2025-09-13 17:10:28.795473,2643,74,4812,52,15764
2025-09-13 17:10:28.860271,2645,74,4676,180,15772
2025-09-13 17:10:28.924424,2624,74,4592,124,15728
2025-09-13 17:10:28.989370,2643,74,4756,228,15780
2025-09-13 17:10:29.054369,2639,74,4796,272,15752
2025-09-13 17:10:29.119640,2644,74,4776,192,15812
2025-09-13 17:10:29.187674,2636,74,4860,212,15760
2025-09-13 17:10:29.255213,2639,74,4888,196,15652
2025-09-13 17:10:29.321829,2646,74,5092,52,15696
2025-09-13 17:10:29.388852,2647,74,4752,224,15948
2025-09-13 17:10:29.454563,2640,74,4572,128,15760
2025-09-13 17:10:29.519938,2640,74,4728,252,15688
2025-09-13 17:10:29.600943,2640,74,4788,148,15816
2025-09-13 17:10:29.665974,2647,74,4820,156,15776
2025-09-13 17:10:29.729942,2641,74,4980,72,15776
2025-09-13 17:10:29.795942,2643,74,4916,156,15792
2025-09-13 17:10:29.863086,2637,74,4680,264,15796
2025-09-13 17:10:29.927943,2640,74,4852,168,15872
2025-09-13 17:10:29.993303,2642,74,5016,188,15780
2025-09-13 17:10:30.059312,2641,74,4892,104,15844
2025-09-13 17:10:30.125059,2643,74,4804,208,15796
2025-09-13 17:10:30.190685,2652,74,4876,148,15720
2025-09-13 17:10:30.255243,2638,74,4892,60,15652
2025-09-13 17:10:30.325166,2643,74,4780,52,15804
2025-09-13 17:10:30.393452,2637,74,4828,176,15856
2025-09-13 17:10:30.462116,2647,74,4652,176,15756
2025-09-13 17:10:30.530317,2647,74,4960,140,15736
2025-09-13 17:10:30.614786,2653,74,4956,216,15780
2025-09-13 17:10:30.684412,2648,74,4892,136,15780
2025-09-13 17:10:30.754043,2640,74,4920,200,15764
2025-09-13 17:10:30.823051,2631,74,5016,76,15872
2025-09-13 17:10:30.891691,2636,74,4968,188,15632
2025-09-13 17:10:30.959652,2612,74,4832,132,15580
2025-09-13 17:10:31.027658,2643,74,4776,136,15732
2025-09-13 17:10:31.094032,2655,74,4792,104,15600
2025-09-13 17:10:31.163949,2642,74,4832,44,15860
2025-09-13 17:10:31.233038,2642,74,4536,256,15672
2025-09-13 17:10:31.302009,2646,74,4668,356,15724
2025-09-13 17:10:31.372029,2646,74,4840,256,15800
2025-09-13 17:10:31.443100,2636,74,4820,180,15752
2025-09-13 17:10:31.525933,2641,74,4900,20,15820
2025-09-13 17:10:31.593066,2643,74,5020,148,15680
2025-09-13 17:10:31.659463,2642,74,4860,204,15656
2025-09-13 17:10:31.725481,2634,74,5004,60,15680
2025-09-13 17:10:31.790025,2641,74,4752,260,15784
2025-09-13 17:10:31.859772,2640,74,4604,132,15724
2025-09-13 17:10:31.925033,2645,74,4548,160,15764
2025-09-13 17:10:31.991284,2654,74,4744,72,15768
2025-09-13 17:10:32.059069,2641,74,4796,144,15904
2025-09-13 17:10:32.125356,2624,74,4708,144,15636
2025-09-13 17:10:32.191557,2639,74,4584,196,15708
2025-09-13 17:10:32.256705,2624,74,4848,92,15724
2025-09-13 17:10:32.322146,2642,74,5104,120,15776
2025-09-13 17:10:32.390203,2646,74,5100,65508,15664
2025-09-13 17:10:32.457205,2642,74,4832,156,15752
2025-09-13 17:10:32.538852,2645,74,4632,124,15764
2025-09-13 17:10:32.604642,2641,74,4488,152,15784
2025-09-13 17:10:32.669909,2638,74,4524,212,15852
2025-09-13 17:10:32.735209,2636,74,4608,364,15844
2025-09-13 17:10:32.800314,2642,74,4624,164,15816
2025-09-13 17:10:32.865408,2645,74,5136,65404,15580
2025-09-13 17:10:32.931826,2642,74,5336,32,15636
2025-09-13 17:10:32.994828,2640,74,5096,84,15920
2025-09-13 17:10:33.061227,2645,74,4492,88,15968
2025-09-13 17:10:33.125122,2612,74,4620,176,15720
2025-09-13 17:10:33.190392,2641,74,4876,240,15896
2025-09-13 17:10:33.256905,2632,74,4524,176,15644
2025-09-13 17:10:33.323521,2653,74,4732,124,15800
2025-09-13 17:10:33.389146,2634,74,5044,128,15764
2025-09-13 17:10:33.468754,2639,74,5220,108,15644
2025-09-13 17:10:33.534855,2646,74,4948,168,15760
2025-09-13 17:10:33.600654,2637,74,4792,176,15752
2025-09-13 17:10:33.664712,2640,74,4848,156,15844
2025-09-13 17:10:33.729474,2655,74,4940,144,15728
2025-09-13 17:10:33.793608,2632,74,4804,112,15820
2025-09-13 17:10:33.857747,2653,74,4224,112,15744
2025-09-13 17:10:33.924759,2632,74,4328,388,15836
2025-09-13 17:10:33.989087,2642,74,4816,248,15736
2025-09-13 17:10:34.055556,2643,74,5180,136,15820
2025-09-13 17:10:34.119558,2649,74,4720,124,15732
2025-09-13 17:10:34.186152,2624,74,4644,208,15744
2025-09-13 17:10:34.251680,2638,74,4964,132,15828
2025-09-13 17:10:34.315950,2640,74,4852,104,15684
2025-09-13 17:10:34.380476,2640,74,4788,148,15576
2025-09-13 17:10:34.459844,2652,74,4692,192,15668
2025-09-13 17:10:34.524440,2641,74,4360,84,16132
2025-09-13 17:10:34.588445,2641,74,4136,328,15636
2025-09-13 17:10:34.652335,2641,74,5584,520,15552
2025-09-13 17:10:34.716341,2612,74,5432,240,15692
2025-09-13 17:10:34.781348,2637,74,5036,108,15612
2025-09-13 17:10:34.847346,2645,74,4868,65292,15672
2025-09-13 17:10:34.912068,2643,74,5300,65492,15600
2025-09-13 17:10:34.978063,2642,74,5144,92,15728
2025-09-13 17:10:35.044528,2640,74,5156,212,15736
2025-09-13 17:10:35.108569,2641,74,4932,248,15864
2025-09-13 17:10:35.175861,2648,74,4900,65492,15700
2025-09-13 17:10:35.242861,2652,74,4980,40,15684
2025-09-13 17:10:35.308596,2643,74,4848,65468,15840
2025-09-13 17:10:35.374619,2646,74,4712,188,15700
2025-09-13 17:10:35.454618,2655,74,4868,176,15768
2025-09-13 17:10:35.520618,2648,74,4772,200,15804
2025-09-13 17:10:35.587712,2641,74,4896,76,15580
2025-09-13 17:10:35.655871,2655,74,5144,48,15680
2025-09-13 17:10:35.720881,2640,74,5024,84,15876
2025-09-13 17:10:35.788957,2640,74,4776,64,15816
2025-09-13 17:10:35.853069,2645,74,4864,160,15676
2025-09-13 17:10:35.917809,2641,74,4828,108,15644
2025-09-13 17:10:35.981816,2641,74,4956,296,15728
2025-09-13 17:10:36.049940,2641,74,4916,192,15596
2025-09-13 17:10:36.115450,2644,74,4956,65520,15752
2025-09-13 17:10:36.181383,2653,74,4900,136,15732
2025-09-13 17:10:36.249372,2643,74,5016,100,15668
2025-09-13 17:10:36.314512,2645,74,5176,132,15784
2025-09-13 17:10:36.380023,2651,74,5148,20,15700
2025-09-13 17:10:36.458212,2655,74,5044,112,15836
2025-09-13 17:10:36.521768,2640,74,4824,156,15568
2025-09-13 17:10:36.586153,2636,74,5136,196,15600
2025-09-13 17:10:36.654158,2639,74,5320,124,15752
2025-09-13 17:10:36.719909,2642,74,5076,52,15820
2025-09-13 17:10:36.786909,2642,74,4940,112,15764
2025-09-13 17:10:36.853798,2632,74,4852,132,15660
2025-09-13 17:10:36.916812,2640,74,5024,112,15628
2025-09-13 17:10:36.981826,2645,74,4800,152,15940
2025-09-13 17:10:37.047902,2644,74,4932,16,15708
2025-09-13 17:10:37.114433,2643,74,5112,68,15700
2025-09-13 17:10:37.179434,2635,74,5196,96,15664
2025-09-13 17:10:37.245434,2648,71,5372,80,15616
2025-09-13 17:10:37.311701,2634,71,4988,104,15828
2025-09-13 17:10:37.393281,2640,71,4864,100,15668
2025-09-13 17:10:37.458038,2684,71,4904,168,15684
2025-09-13 17:10:37.524238,2634,71,4988,20,15576
2025-09-13 17:10:37.589960,2637,71,5260,176,15724
2025-09-13 17:10:37.653643,2652,71,5008,76,15692
2025-09-13 17:10:37.718634,2650,71,5116,144,15612
2025-09-13 17:10:37.782991,2640,71,5120,92,15736
2025-09-13 17:10:37.848380,2641,71,5120,20,15652
2025-09-13 17:10:37.913164,2636,71,5000,124,15764
2025-09-13 17:10:37.976734,2640,71,5152,248,15664
2025-09-13 17:10:38.040571,2642,71,5212,172,15640
2025-09-13 17:10:38.106657,2640,71,5036,208,15808
2025-09-13 17:10:38.174415,2647,71,4904,44,15676
2025-09-13 17:10:38.239465,2642,71,4888,40,15700
2025-09-13 17:10:38.306518,2630,71,4784,60,15648
2025-09-13 17:10:38.385956,2638,71,4980,148,15640
2025-09-13 17:10:38.451309,2624,71,5076,72,15564
2025-09-13 17:10:38.515276,2646,71,5328,324,15724
2025-09-13 17:10:38.580651,2643,71,5200,36,15764
2025-09-13 17:10:38.644752,2632,71,5172,100,15684
2025-09-13 17:10:38.708651,2642,71,5336,44,15684
2025-09-13 17:10:38.773650,2633,71,5408,184,15576
2025-09-13 17:10:38.839739,2641,71,5124,48,15544
2025-09-13 17:10:38.905630,2641,71,5100,128,15708
2025-09-13 17:10:38.971094,2653,71,4892,40,15744
2025-09-13 17:10:39.035478,2640,71,5064,0,15584
2025-09-13 17:10:39.100523,2648,71,5416,76,15524
2025-09-13 17:10:39.167686,2632,71,5324,65504,15680
2025-09-13 17:10:39.232762,2655,71,5100,104,15800
2025-09-13 17:10:39.299909,2640,71,5472,80,15392
2025-09-13 17:10:39.380375,2685,71,5032,8,15632
2025-09-13 17:10:39.446381,2655,71,5168,88,15636
2025-09-13 17:10:39.514641,2642,71,5444,120,15380
2025-09-13 17:10:39.577640,2653,71,5060,4,15584
2025-09-13 17:10:39.645994,2640,71,5168,104,15612
2025-09-13 17:10:39.713934,2634,71,5184,60,15668
2025-09-13 17:10:39.780285,2645,71,5196,65528,15592
2025-09-13 17:10:39.845252,2636,71,5328,176,15584
2025-09-13 17:10:39.912328,2640,71,5112,92,15652
2025-09-13 17:10:39.978265,2641,71,5100,248,15544
2025-09-13 17:10:40.042861,2642,71,4924,24,15680
2025-09-13 17:10:40.110537,2640,71,5324,104,15520
2025-09-13 17:10:40.175636,2642,71,5632,116,15548
2025-09-13 17:10:40.240639,2647,71,5364,4,15728
2025-09-13 17:10:40.308639,2612,71,5356,16,15376
2025-09-13 17:10:40.388691,2649,71,5068,64,15696
2025-09-13 17:10:40.453695,2642,71,5164,100,15608
2025-09-13 17:10:40.518696,2613,71,5048,80,15660
2025-09-13 17:10:40.584823,2648,71,5324,36,15676
2025-09-13 17:10:40.647072,2647,71,5408,68,15744
2025-09-13 17:10:40.715877,2641,71,5308,196,15464
2025-09-13 17:10:40.781466,2643,71,5108,104,15688
2025-09-13 17:10:40.847049,2654,71,5172,56,15456
2025-09-13 17:10:40.913595,2637,71,5284,156,15536
2025-09-13 17:10:40.977757,2632,71,5052,28,15624
2025-09-13 17:10:41.041756,2632,71,5016,80,15616
2025-09-13 17:10:41.108350,2642,71,5284,40,15508
2025-09-13 17:10:41.174350,2640,71,5460,88,15576
2025-09-13 17:10:41.242040,2632,71,5628,60,15620
2025-09-13 17:10:41.321135,2599,71,4940,52,15800
2025-09-13 17:10:41.386646,2643,71,5052,24,15664
2025-09-13 17:10:41.452158,2652,71,5464,65528,15504
2025-09-13 17:10:41.517145,2644,71,5444,68,15584
2025-09-13 17:10:41.584603,2640,71,5532,56,15456
2025-09-13 17:10:41.649980,2641,71,5272,124,15372
2025-09-13 17:10:41.715083,2641,71,5304,52,15712
2025-09-13 17:10:41.778608,2641,71,5412,65484,15568
2025-09-13 17:10:41.845609,2641,71,5276,60,15572
2025-09-13 17:10:41.911290,2632,71,5344,36,15604
2025-09-13 17:10:41.977290,2638,71,5356,44,15616
2025-09-13 17:10:42.043292,2655,71,5332,96,15560
2025-09-13 17:10:42.110364,2632,71,5356,64,15612
2025-09-13 17:10:42.175837,2638,71,5416,65456,15480
2025-09-13 17:10:42.245837,2642,71,5292,24,15480
2025-09-13 17:10:42.335184,2641,71,5352,64,15628
2025-09-13 17:10:42.400380,2642,71,5328,236,15620
2025-09-13 17:10:42.466295,2655,71,5232,112,15464
2025-09-13 17:10:42.534677,2638,71,5328,76,15540
2025-09-13 17:10:42.599059,2641,71,5236,65504,15676
2025-09-13 17:10:42.664243,2616,71,5212,20,15696
2025-09-13 17:10:42.731480,2651,71,5144,100,15752
2025-09-13 17:10:42.799799,2638,71,5372,128,15712
2025-09-13 17:10:42.867888,2640,71,5348,156,15612
2025-09-13 17:10:42.935098,2642,71,5184,65484,15632
2025-09-13 17:10:43.001186,2640,71,5280,44,15488
2025-09-13 17:10:43.066097,2664,71,5136,80,15600
2025-09-13 17:10:43.133096,2642,71,5192,184,15596
2025-09-13 17:10:43.199667,2641,71,5492,132,15532
2025-09-13 17:10:43.265674,2636,71,5052,32,15740
2025-09-13 17:10:43.348162,2640,71,5080,84,15604
2025-09-13 17:10:43.412892,2640,71,5172,65532,15652
2025-09-13 17:10:43.478063,2640,71,5300,8,15708
2025-09-13 17:10:43.544424,2642,71,5192,64,15464
2025-09-13 17:10:43.612009,2640,71,5308,88,15652
2025-09-13 17:10:43.678594,2640,71,5196,256,15652
2025-09-13 17:10:43.746660,2636,71,5340,108,15576
2025-09-13 17:10:43.812260,2647,71,5476,8,15716
2025-09-13 17:10:43.878042,2641,71,5268,144,15516
2025-09-13 17:10:43.943057,2640,71,5324,64,15728
2025-09-13 17:10:44.009011,2642,71,5172,84,15520
2025-09-13 17:10:44.073016,2653,71,5080,60,15556
2025-09-13 17:10:44.140018,2645,71,5368,160,15596
2025-09-13 17:10:44.206716,2637,71,5428,120,15404
2025-09-13 17:10:44.274697,2639,71,5312,96,15496
2025-09-13 17:10:44.356658,2612,71,5180,260,15632
2025-09-13 17:10:44.422220,2636,71,5188,100,15564
2025-09-13 17:10:44.488371,2639,71,5172,68,15572
2025-09-13 17:10:44.553459,2642,71,5300,148,15532
2025-09-13 17:10:44.617554,2632,71,5360,16,15664
2025-09-13 17:10:44.681996,2632,71,5152,52,15540
2025-09-13 17:10:44.753507,2641,71,5300,192,15508
2025-09-13 17:10:44.820516,2640,71,5336,24,15576
2025-09-13 17:10:44.889525,2641,71,5384,188,15708
2025-09-13 17:10:44.956048,2642,71,5428,65520,15592
2025-09-13 17:10:45.022970,2684,71,5260,168,15652
2025-09-13 17:10:45.089686,2648,71,5244,180,15720
2025-09-13 17:10:45.156326,2639,71,5268,88,15660
2025-09-13 17:10:45.221928,2640,71,5248,72,15648
2025-09-13 17:10:45.305472,2648,71,5240,104,15708
2025-09-13 17:10:45.372170,2642,71,5228,116,15524
2025-09-13 17:10:45.437857,2636,71,5204,120,15512
2025-09-13 17:10:45.502815,2645,71,5200,56,15544
2025-09-13 17:10:45.571497,2640,71,5296,88,15620
2025-09-13 17:10:45.638579,2632,71,5280,116,15616
2025-09-13 17:10:45.706457,2644,71,5244,60,15580
2025-09-13 17:10:45.774521,2640,71,5284,56,15584
2025-09-13 17:10:45.841462,2644,71,5380,68,15584
2025-09-13 17:10:45.906538,2647,71,5316,12,15488
2025-09-13 17:10:45.972596,2642,71,5444,284,15672
2025-09-13 17:10:46.039766,2639,71,5268,65528,15584
2025-09-13 17:10:46.108772,2636,71,5280,48,15444
2025-09-13 17:10:46.174808,2640,71,5424,200,15680
2025-09-13 17:10:46.240445,2643,71,5428,112,15636
2025-09-13 17:10:46.323819,2642,71,5236,76,15576
2025-09-13 17:10:46.390319,2642,71,5264,108,15576
2025-09-13 17:10:46.456319,2654,71,5348,0,15524
2025-09-13 17:10:46.523319,2641,71,5432,96,15572
2025-09-13 17:10:46.589313,2632,71,5372,112,15608
2025-09-13 17:10:46.655655,2651,71,5232,112,15536
2025-09-13 17:10:46.720682,2644,71,5140,92,15700
2025-09-13 17:10:46.788214,2651,71,5196,164,15652
2025-09-13 17:10:46.851243,2652,71,5288,124,15604
2025-09-13 17:10:46.917870,2638,71,5232,136,15612
2025-09-13 17:10:46.980705,2666,71,5268,96,15736
2025-09-13 17:10:47.044710,2641,71,5204,68,15632
2025-09-13 17:10:47.110463,2643,71,5132,88,15532
2025-09-13 17:10:47.176611,2655,71,5252,84,15580
2025-09-13 17:10:47.241615,2636,71,5316,132,15640
2025-09-13 17:10:47.322615,2614,67,5312,136,15388
2025-09-13 17:10:47.388615,2632,67,5324,84,15540
2025-09-13 17:10:47.454615,2644,67,5264,8,15624
2025-09-13 17:10:47.518614,2642,67,5308,16,15596
2025-09-13 17:10:47.583781,2638,67,5228,36,15668
2025-09-13 17:10:47.648959,2639,67,5132,52,15476
2025-09-13 17:10:47.712802,2642,67,5292,128,15560
2025-09-13 17:10:47.777676,2643,67,5380,100,15748
2025-09-13 17:10:47.845750,2653,67,5404,112,15612
2025-09-13 17:10:47.912911,2643,67,5284,164,15696
2025-09-13 17:10:47.980796,2640,67,5168,164,15708
2025-09-13 17:10:48.047795,2640,67,5272,200,15716
2025-09-13 17:10:48.113181,2642,67,5236,156,15628
2025-09-13 17:10:48.179182,2634,67,5196,60,15704
2025-09-13 17:10:48.246182,2638,67,5236,8,15616
2025-09-13 17:10:48.325181,2652,67,5268,124,15652
2025-09-13 17:10:48.390180,2642,67,5168,184,15612
2025-09-13 17:10:48.456816,2636,67,5180,180,15648
2025-09-13 17:10:48.520821,2640,67,5272,188,15500
2025-09-13 17:10:48.586822,2640,67,5328,88,15556
2025-09-13 17:10:48.651822,2642,67,5320,136,15728
2025-09-13 17:10:48.716559,2655,67,5296,56,15600
2025-09-13 17:10:48.781479,2640,67,5320,80,15652
2025-09-13 17:10:48.849050,2640,67,5136,140,15568
2025-09-13 17:10:48.912623,2637,67,5156,0,15672
2025-09-13 17:10:48.977903,2642,67,5192,72,15700
2025-09-13 17:10:49.044939,2640,67,5308,76,15708
2025-09-13 17:10:49.110013,2640,67,5244,184,15500
2025-09-13 17:10:49.177708,2634,67,5312,72,15576
2025-09-13 17:10:49.258621,2632,67,5336,68,15676
2025-09-13 17:10:49.326703,2643,67,5272,96,15676
2025-09-13 17:10:49.391713,2645,67,5312,68,15608
2025-09-13 17:10:49.462753,2651,67,5232,68,15644
2025-09-13 17:10:49.533752,2647,67,5336,92,15676
2025-09-13 17:10:49.604734,2634,67,5276,24,15612
2025-09-13 17:10:49.674823,2655,67,5200,44,15688
2025-09-13 17:10:49.743735,2630,67,5196,148,15596
2025-09-13 17:10:49.813816,2643,67,5248,136,15668
2025-09-13 17:10:49.885114,2632,67,5244,92,15504
2025-09-13 17:10:49.956606,2640,67,5280,156,15652
2025-09-13 17:10:50.026130,2649,67,5424,76,15372
2025-09-13 17:10:50.097221,2646,67,5264,112,15576
2025-09-13 17:10:50.166176,2643,67,5124,116,15684
2025-09-13 17:10:50.249222,2645,67,5188,60,15544
2025-09-13 17:10:50.318227,2641,67,5304,56,15532
2025-09-13 17:10:50.387621,2640,67,5272,156,15532
2025-09-13 17:10:50.457624,2642,67,5124,72,15712
2025-09-13 17:10:50.526660,2624,67,5128,88,15672
2025-09-13 17:10:50.596665,2644,67,5132,96,15680
2025-09-13 17:10:50.666176,2641,67,5140,96,15752
2025-09-13 17:10:50.738545,2642,67,5320,236,15496
2025-09-13 17:10:50.809682,2645,67,5384,92,15568
2025-09-13 17:10:50.878839,2641,67,5380,220,15468
2025-09-13 17:10:50.947544,2643,67,5332,72,15544
2025-09-13 17:10:51.018802,2647,67,5260,52,15720
2025-09-13 17:10:51.091778,2636,67,5172,0,15576
2025-09-13 17:10:51.174805,2647,67,5196,84,15512
2025-09-13 17:10:51.243423,2637,67,5276,136,15612
2025-09-13 17:10:51.312423,2643,67,5224,120,15536
2025-09-13 17:10:51.381495,2642,67,5248,136,15600
2025-09-13 17:10:51.451666,2644,67,5336,104,15604
2025-09-13 17:10:51.521628,2641,67,5320,72,15756
2025-09-13 17:10:51.591940,2655,67,5316,120,15484
2025-09-13 17:10:51.661171,2640,67,5244,68,15608
2025-09-13 17:10:51.728066,2648,67,5248,32,15700
2025-09-13 17:10:51.800252,2645,67,5204,124,15628
2025-09-13 17:10:51.869935,2640,67,5200,60,15536
2025-09-13 17:10:51.941017,2648,67,5272,104,15528
2025-09-13 17:10:52.011759,2644,67,5192,144,15576
2025-09-13 17:10:52.095826,2655,67,5264,72,15660
2025-09-13 17:10:52.164767,2648,67,5352,104,15540
2025-09-13 17:10:52.232314,2647,67,5316,36,15540
2025-09-13 17:10:52.303233,2652,67,5352,172,15592
2025-09-13 17:10:52.373496,2641,67,5324,92,15644
2025-09-13 17:10:52.442954,2632,67,5224,152,15520
2025-09-13 17:10:52.512991,2640,67,5240,4,15620
2025-09-13 17:10:52.582457,2640,67,5236,0,15600
2025-09-13 17:10:52.652457,2645,67,5156,52,15592
2025-09-13 17:10:52.721457,2634,67,5228,52,15632
2025-09-13 17:10:52.791018,2653,67,5284,124,15596
2025-09-13 17:10:52.860018,2642,67,5144,32,15632
2025-09-13 17:10:52.931061,2631,67,5184,100,15600
2025-09-13 17:10:52.998963,2640,67,5332,164,15672
2025-09-13 17:10:53.085914,2643,67,5344,100,15608
2025-09-13 17:10:53.155920,2641,67,5268,172,15596
2025-09-13 17:10:53.225433,2624,67,5420,24,15608
2025-09-13 17:10:53.296373,2643,67,5264,76,15696
2025-09-13 17:10:53.365417,2646,67,5128,48,15600
2025-09-13 17:10:53.434716,2624,67,5188,44,15676
2025-09-13 17:10:53.504933,2632,67,5288,140,15644
2025-09-13 17:10:53.572940,2652,67,5308,180,15644
2025-09-13 17:10:53.644990,2624,67,5380,132,15552
2025-09-13 17:10:53.714938,2640,67,5484,96,15720
2025-09-13 17:10:53.786214,2641,67,5360,44,15632
2025-09-13 17:10:53.857855,2642,67,5336,68,15692
2025-09-13 17:10:53.928027,2642,67,5164,196,15640
2025-09-13 17:10:54.019114,2652,67,5320,72,15584
2025-09-13 17:10:54.095909,2641,67,5272,80,15664
2025-09-13 17:10:54.169918,2641,67,5184,148,15520
2025-09-13 17:10:54.239409,2639,67,5148,144,15672
2025-09-13 17:10:54.309152,2641,67,5288,152,15508
2025-09-13 17:10:54.378732,2643,67,5336,168,15512
2025-09-13 17:10:54.447853,2611,67,5340,128,15588
2025-09-13 17:10:54.518241,2641,67,5312,112,15680
2025-09-13 17:10:54.590327,2638,67,5252,0,15576
2025-09-13 17:10:54.659651,2640,67,5480,92,15632
2025-09-13 17:10:54.728781,2645,67,5256,124,15564
2025-09-13 17:10:54.801738,2641,67,5236,84,15708
2025-09-13 17:10:54.870853,2654,67,5180,96,15588
2025-09-13 17:10:54.959641,2645,67,5308,128,15660
2025-09-13 17:10:55.029804,2645,67,5420,20,15572
2025-09-13 17:10:55.097846,2646,67,5332,108,15580
2025-09-13 17:10:55.168818,2640,67,5248,172,15568
2025-09-13 17:10:55.239549,2646,67,5268,108,15576
2025-09-13 17:10:55.311561,2644,67,5236,148,15588
2025-09-13 17:10:55.382539,2655,67,5384,72,15504
2025-09-13 17:10:55.453615,2640,67,5328,172,15548
2025-09-13 17:10:55.526448,2655,67,5360,144,15600
2025-09-13 17:10:55.604069,2643,67,5280,68,15596
2025-09-13 17:10:55.679020,2648,67,5228,136,15572
2025-09-13 17:10:55.755375,2644,67,5172,20,15628
2025-09-13 17:10:55.830730,2651,67,5312,60,15700
2025-09-13 17:10:55.902833,2647,67,5292,104,15516
2025-09-13 17:10:55.989012,2641,67,5308,152,15644
2025-09-13 17:10:56.060012,2634,67,5316,104,15536
2025-09-13 17:10:56.133883,2632,67,5492,88,15644
2025-09-13 17:10:56.204208,2640,67,5384,152,15668
2025-09-13 17:10:56.275105,2634,67,5216,76,15568
2025-09-13 17:10:56.344152,2645,67,5188,148,15688
2025-09-13 17:10:56.414112,2643,67,5188,100,15572
2025-09-13 17:10:56.492971,2644,67,5220,124,15556
2025-09-13 17:10:56.568113,2647,67,5280,96,15628
2025-09-13 17:10:56.642538,2640,67,5244,176,15584
2025-09-13 17:10:56.713537,2645,67,5300,52,15616
2025-09-13 17:10:56.786628,2633,67,5304,28,15592
2025-09-13 17:10:56.856799,2616,67,5344,104,15744
2025-09-13 17:10:56.939668,2632,67,5380,100,15632
2025-09-13 17:10:57.009493,2632,67,5416,36,15724
2025-09-13 17:10:57.082333,2640,67,5296,72,15616
2025-09-13 17:10:57.155421,2640,67,5312,28,15676
2025-09-13 17:10:57.231413,2641,67,5152,64,15624
2025-09-13 17:10:57.305148,2642,67,5244,104,15568
2025-09-13 17:10:57.378252,2645,67,5212,92,15640
2025-09-13 17:10:57.447973,2646,67,5344,36,15676
2025-09-13 17:10:57.519766,2642,67,5236,144,15508
2025-09-13 17:10:57.593050,2642,67,5336,160,15600
2025-09-13 17:10:57.664294,2640,67,5348,104,15712
2025-09-13 17:10:57.741579,2645,67,5428,68,15556
2025-09-13 17:10:57.816692,2640,67,5420,104,15628
2025-09-13 17:10:57.906691,2643,67,5300,176,15516
2025-09-13 17:10:57.978692,2651,67,5084,184,15620
2025-09-13 17:10:58.051346,2642,66,5284,96,15628
2025-09-13 17:10:58.125089,2643,66,5276,28,15628
2025-09-13 17:10:58.195049,2638,66,5292,80,15648
2025-09-13 17:10:58.268588,2643,66,5272,216,15580
2025-09-13 17:10:58.343906,2644,66,5204,196,15556
2025-09-13 17:10:58.417294,2642,66,5424,148,15520
2025-09-13 17:10:58.491236,2640,66,5332,132,15540
2025-09-13 17:10:58.560971,2646,66,5296,84,15676
2025-09-13 17:10:58.633976,2640,66,5256,52,15704
2025-09-13 17:10:58.702976,2640,66,5196,116,15572
2025-09-13 17:10:58.775570,2624,66,5184,24,15592
2025-09-13 17:10:58.860149,2640,66,5284,164,15640
2025-09-13 17:10:58.928148,2655,66,5196,208,15580
2025-09-13 17:10:59.000208,2614,66,5296,68,15544
2025-09-13 17:10:59.071208,2645,66,5232,116,15516
2025-09-13 17:10:59.138208,2641,66,5268,228,15644
2025-09-13 17:10:59.208348,2636,66,5280,148,15444
2025-09-13 17:10:59.285349,2640,66,5360,96,15600
2025-09-13 17:10:59.357351,2641,66,5168,44,15648
2025-09-13 17:10:59.429867,2642,66,5180,192,15672
2025-09-13 17:10:59.500894,2640,66,5272,36,15508
2025-09-13 17:10:59.570895,2635,66,5260,52,15488
2025-09-13 17:10:59.645894,2638,66,5220,188,15696
2025-09-13 17:10:59.718904,2642,66,5272,216,15564
2025-09-13 17:10:59.790019,2632,66,5232,188,15572
2025-09-13 17:10:59.876020,2636,66,5232,124,15448
2025-09-13 17:10:59.952019,2645,66,5404,28,15720
2025-09-13 17:11:00.042021,2632,66,5320,120,15572
2025-09-13 17:11:00.114083,2641,66,5300,96,15612
2025-09-13 17:11:00.185535,2641,66,5312,92,15784
2025-09-13 17:11:00.257545,2635,66,5180,80,15504
2025-09-13 17:11:00.328620,2643,66,5256,108,15564
2025-09-13 17:11:00.398888,2655,66,5292,156,15552
2025-09-13 17:11:00.472435,2640,66,5268,128,15636
2025-09-13 17:11:00.542531,2648,66,5300,156,15668
2025-09-13 17:11:00.610862,2663,66,5284,144,15576
2025-09-13 17:11:00.680588,2641,66,5268,148,15648
2025-09-13 17:11:00.751593,2642,66,5208,84,15552
2025-09-13 17:11:00.835659,2653,66,5280,28,15564
2025-09-13 17:11:00.902593,2646,66,5332,112,15584
2025-09-13 17:11:00.973913,2655,66,5152,84,15608
2025-09-13 17:11:01.041113,2624,66,5164,48,15604
2025-09-13 17:11:01.110487,2648,66,5232,140,15596
2025-09-13 17:11:01.179982,2653,66,5204,156,15500
2025-09-13 17:11:01.253134,2642,66,5300,128,15468
2025-09-13 17:11:01.323219,2638,66,5244,128,15676
2025-09-13 17:11:01.395135,2643,66,5280,184,15652
2025-09-13 17:11:01.466208,2646,66,5380,72,15648
2025-09-13 17:11:01.536233,2651,66,5404,100,15700
2025-09-13 17:11:01.607238,2648,66,5152,116,15716
2025-09-13 17:11:01.679685,2633,66,5312,128,15528
2025-09-13 17:11:01.764914,2640,66,5264,168,15452
2025-09-13 17:11:01.834322,2634,66,5288,80,15536
2025-09-13 17:11:01.905513,2624,66,5200,212,15584
2025-09-13 17:11:01.979723,2643,66,5156,100,15616
2025-09-13 17:11:02.050557,2632,66,5156,184,15636
2025-09-13 17:11:02.121902,2642,66,5400,156,15552
2025-09-13 17:11:02.191509,2645,66,5452,136,15472
2025-09-13 17:11:02.261521,2616,66,5428,136,15660
2025-09-13 17:11:02.331298,2641,66,5144,84,15816
2025-09-13 17:11:02.401227,2633,66,5208,24,15592
2025-09-13 17:11:02.471228,2642,66,5424,48,15532
2025-09-13 17:11:02.541234,2655,66,5192,48,15560
2025-09-13 17:11:02.610227,2647,66,5160,144,15612
2025-09-13 17:11:02.678734,2632,66,5268,144,15616
2025-09-13 17:11:02.763288,2640,66,5208,148,15644
2025-09-13 17:11:02.832919,2642,66,5168,120,15476
2025-09-13 17:11:02.903451,2647,66,5368,164,15692
2025-09-13 17:11:02.973391,2627,66,5252,0,15640
